File: Exploratory-Data-Science/Model Testing of Backsheet Color and FTIR Data/FTIR/DampHeat-FTIR/UL DH 500hr PET 3.080-1.SPA.dpt
3999.71,0.00283
3995.85,0.00253
3991.99,0.00221
3988.13,0.00196
3984.28,0.00169
3980.42,0.00134
3976.56,0.00113
3972.71,0.00103
3968.85,0.00085
3964.99,0.00067
3961.14,0.00051
3957.28,0.00032
3953.42,0.00011
3949.56,0.00000
3945.71,-0.00021
3941.85,-0.00026
3937.99,-0.00024
3934.14,-0.00034
3930.28,-0.00033
3926.42,-0.00041
3922.57,-0.00036
3918.71,-0.00036
3914.85,-0.00029
3910.99,-0.00032
3907.14,-0.00017
3903.28,-0.00015
3899.42,-0.00004
3895.57,-0.00010
3891.71,-0.00030
3887.85,-0.00039
3884,-0.00040
3880.14,-0.00040
3876.28,-0.00049
3872.42,-0.00050
3868.57,-0.00052
3864.71,-0.00051
3860.85,-0.00044
3857,-0.00036
3853.14,-0.00026
3849.28,-0.00017
3845.43,0.00000
3841.57,-0.00007
3837.71,-0.00016
3833.85,-0.00033
3830,-0.00035
3826.14,-0.00040
3822.28,-0.00042
3818.43,-0.00039
3814.57,-0.00029
3810.71,-0.00028
3806.86,-0.00020
3803,-0.00012
3799.14,-0.00023
3795.28,-0.00007
3791.43,-0.00011
3787.57,-0.00022
3783.71,-0.00032
3779.86,-0.00037
3776,-0.00034
3772.14,-0.00036
3768.29,-0.00019
3764.43,-0.00022
3760.57,-0.00006
3756.72,0.00007
3752.86,0.00003
3749,-0.00003
3745.14,-0.00004
3741.29,0.00000
3737.43,-0.00027
3733.57,-0.00043
3729.72,-0.00057
3725.86,-0.00075
3722,-0.00060
3718.15,-0.00056
3714.29,-0.00039
3710.43,-0.00055
3706.57,-0.00056
3702.72,-0.00051
3698.86,-0.00027
3695,0.00000
3691.15,0.00031
3687.29,0.00063
3683.43,0.00048
3679.58,0.00028
3675.72,-0.00001
3671.86,-0.00021
3668,-0.00036
3664.15,-0.00022
3660.29,-0.00025
3656.43,-0.00023
3652.58,-0.00012
3648.72,0.00003
3644.86,0.00014
3641.01,0.00020
3637.15,0.00018
3633.29,0.00002
3629.43,-0.00019
3625.58,-0.00021
3621.72,-0.00018
3617.86,-0.00022
3614.01,-0.00008
3610.15,-0.00015
3606.29,-0.00020
3602.44,-0.00036
3598.58,-0.00017
3594.72,-0.00007
3590.86,0.00013
3587.01,0.00038
3583.15,0.00052
3579.29,0.00056
3575.44,0.00067
3571.58,0.00067
3567.72,0.00075
3563.87,0.00086
3560.01,0.00088
3556.15,0.00105
3552.29,0.00095
3548.44,0.00099
3544.58,0.00099
3540.72,0.00071
3536.87,0.00060
3533.01,0.00043
3529.15,0.00025
3525.3,0.00014
3521.44,-0.00014
3517.58,-0.00032
3513.72,-0.00028
3509.87,-0.00044
3506.01,-0.00043
3502.15,-0.00044
3498.3,-0.00050
3494.44,-0.00046
3490.58,-0.00035
3486.73,-0.00023
3482.87,-0.00012
3479.01,-0.00010
3475.15,-0.00028
3471.3,-0.00046
3467.44,-0.00044
3463.58,-0.00038
3459.73,-0.00022
3455.87,0.00000
3452.01,0.00036
3448.16,0.00088
3444.3,0.00132
3440.44,0.00222
3436.58,0.00367
3432.73,0.00541
3428.87,0.00563
3425.01,0.00401
3421.16,0.00242
3417.3,0.00136
3413.44,0.00066
3409.59,0.00016
3405.73,-0.00024
3401.87,-0.00032
3398.01,-0.00033
3394.16,-0.00038
3390.3,-0.00028
3386.44,-0.00021
3382.59,-0.00017
3378.73,-0.00009
3374.87,-0.00017
3371.02,-0.00025
3367.16,-0.00044
3363.3,-0.00046
3359.44,-0.00057
3355.59,-0.00055
3351.73,-0.00030
3347.87,-0.00011
3344.02,0.00004
3340.16,0.00027
3336.3,0.00048
3332.45,0.00043
3328.59,0.00025
3324.73,0.00000
3320.87,-0.00022
3317.02,-0.00033
3313.16,-0.00040
3309.3,-0.00034
3305.45,-0.00026
3301.59,-0.00023
3297.73,-0.00012
3293.88,-0.00021
3290.02,-0.00029
3286.16,-0.00021
3282.3,-0.00020
3278.45,-0.00016
3274.59,-0.00010
3270.73,-0.00006
3266.88,-0.00024
3263.02,-0.00041
3259.16,-0.00048
3255.31,-0.00051
3251.45,-0.00054
3247.59,-0.00049
3243.73,-0.00036
3239.88,-0.00035
3236.02,-0.00015
3232.16,-0.00007
3228.31,-0.00003
3224.45,-0.00002
3220.59,0.00000
3216.74,-0.00018
3212.88,-0.00031
3209.02,-0.00035
3205.16,-0.00044
3201.31,-0.00040
3197.45,-0.00039
3193.59,-0.00023
3189.74,-0.00025
3185.88,-0.00018
3182.02,-0.00019
3178.17,-0.00016
3174.31,-0.00012
3170.45,-0.00007
3166.59,-0.00008
3162.74,-0.00027
3158.88,-0.00047
3155.02,-0.00061
3151.17,-0.00060
3147.31,-0.00057
3143.45,-0.00059
3139.6,-0.00052
3135.74,-0.00022
3131.88,0.00002
3128.02,0.00017
3124.17,0.00005
3120.31,-0.00009
3116.45,0.00000
3112.6,0.00025
3108.74,0.00066
3104.88,0.00116
3101.03,0.00125
3097.17,0.00047
3093.31,0.00001
3089.45,0.00013
3085.6,0.00069
3081.74,0.00128
3077.88,0.00144
3074.03,0.00153
3070.17,0.00186
3066.31,0.00193
3062.46,0.00204
3058.6,0.00308
3054.74,0.00428
3050.88,0.00319
3047.03,0.00131
3043.17,0.00010
3039.31,-0.00037
3035.46,-0.00026
3031.6,-0.00013
3027.74,0.00000
3023.89,0.00048
3020.03,0.00209
3016.17,0.00444
3012.31,0.00497
3008.46,0.00426
3004.6,0.00395
3000.74,0.00394
2996.89,0.00412
2993.03,0.00468
2989.17,0.00571
2985.32,0.00755
2981.46,0.01052
2977.6,0.01496
2973.74,0.02133
2969.89,0.02600
2966.03,0.02454
2962.17,0.02124
2958.32,0.01869
2954.46,0.01600
2950.6,0.01283
2946.75,0.00976
2942.89,0.00738
2939.03,0.00594
2935.17,0.00567
2931.32,0.00608
2927.46,0.00681
2923.6,0.00776
2919.75,0.00859
2915.89,0.00938
2912.03,0.01201
2908.18,0.01565
2904.32,0.01403
2900.46,0.00931
2896.6,0.00659
2892.75,0.00565
2888.89,0.00529
2885.03,0.00478
2881.18,0.00404
2877.32,0.00358
2873.46,0.00355
2869.61,0.00373
2865.75,0.00411
2861.89,0.00472
2858.03,0.00546
2854.18,0.00600
2850.32,0.00592
2846.46,0.00405
2842.61,0.00196
2838.75,0.00088
2834.89,0.00033
2831.04,0.00002
2827.18,-0.00002
2823.32,0.00000
2819.46,0.00013
2815.61,0.00035
2811.75,0.00051
2807.89,0.00072
2804.04,0.00087
2800.18,0.00074
2796.32,0.00046
2792.47,0.00024
2788.61,0.00012
2784.75,0.00001
2780.89,-0.00006
2777.04,-0.00007
2773.18,-0.00005
2769.32,0.00000
2765.47,0.00009
2761.61,0.00015
2757.75,0.00022
2753.9,0.00029
2750.04,0.00034
2746.18,0.00038
2742.32,0.00036
2738.47,0.00024
2734.61,0.00001
2730.75,-0.00012
2726.9,-0.00016
2723.04,-0.00014
2719.18,-0.00008
2715.33,-0.00003
2711.47,-0.00000
2707.61,0.00000
2703.75,0.00009
2699.9,0.00013
2696.04,0.00000
2692.18,-0.00013
2688.33,-0.00023
2684.47,-0.00029
2680.61,-0.00038
2676.76,-0.00033
2672.9,-0.00035
2669.04,-0.00029
2665.18,-0.00026
2661.33,-0.00019
2657.47,-0.00013
2653.61,-0.00005
2649.76,-0.00002
2645.9,-0.00005
2642.04,0.00006
2638.19,0.00026
2634.33,0.00031
2630.47,0.00029
2626.61,0.00013
2622.76,-0.00006
2618.9,-0.00013
2615.04,-0.00007
2611.19,-0.00012
2607.33,-0.00013
2603.47,-0.00009
2599.62,-0.00004
2595.76,0.00000
2591.9,0.00000
2588.04,0.00004
2584.19,-0.00003
2580.33,-0.00007
2576.47,-0.00017
2572.62,-0.00028
2568.76,-0.00026
2564.9,-0.00025
2561.05,-0.00015
2557.19,-0.00010
2553.33,-0.00006
2549.47,0.00001
2545.62,0.00003
2541.76,0.00005
2537.9,0.00008
2534.05,0.00017
2530.19,0.00024
2526.33,0.00021
2522.48,0.00013
2518.62,0.00001
2514.76,-0.00002
2510.9,0.00000
2507.05,0.00006
2503.19,0.00016
2499.33,0.00023
2495.48,0.00025
2491.62,0.00023
2487.76,0.00009
2483.91,0.00001
2480.05,0.00001
2476.19,-0.00001
2472.33,0.00003
2468.48,0.00008
2464.62,0.00028
2460.76,0.00041
2456.91,0.00060
2453.05,0.00077
2449.19,0.00106
2445.34,0.00129
2441.48,0.00176
2437.62,0.00227
2433.77,0.00279
2429.91,0.00339
2426.05,0.00407
2422.19,0.00477
2418.34,0.00550
2414.48,0.00626
2410.62,0.00708
2406.77,0.00785
2402.91,0.00869
2399.05,0.00957
2395.2,0.01028
2391.34,0.01100
2387.48,0.01162
2383.62,0.01176
2379.77,0.01078
2375.91,0.00814
2372.05,0.00480
2368.2,0.00198
2364.34,0.00038
2360.48,0.00000
2356.63,0.00063
2352.77,0.00408
2348.91,0.00846
2345.05,0.00369
2341.2,0.00150
2337.34,0.00142
2333.48,0.00159
2329.63,0.00164
2325.77,0.00247
2321.91,0.00302
2318.06,0.00412
2314.2,0.00516
2310.34,0.00599
2306.48,0.00676
2302.63,0.00729
2298.77,0.00759
2294.91,0.00791
2291.06,0.00806
2287.2,0.00801
2283.34,0.00778
2279.49,0.00710
2275.63,0.00658
2271.77,0.00613
2267.91,0.00580
2264.06,0.00548
2260.2,0.00513
2256.34,0.00459
2252.49,0.00423
2248.63,0.00373
2244.77,0.00328
2240.92,0.00285
2237.06,0.00245
2233.2,0.00213
2229.34,0.00207
2225.49,0.00191
2221.63,0.00177
2217.77,0.00154
2213.92,0.00149
2210.06,0.00121
2206.2,0.00116
2202.35,0.00100
2198.49,0.00074
2194.63,0.00044
2190.77,0.00050
2186.92,0.00021
2183.06,0.00000
2179.2,0.00060
2175.35,0.00083
2171.49,0.00134
2167.63,0.00153
2163.78,0.00094
2159.92,0.00000
2156.06,0.00152
2152.2,0.00410
2148.35,0.00556
2144.49,0.00651
2140.63,0.00781
2136.78,0.00876
2132.92,0.00975
2129.06,0.01108
2125.21,0.01195
2121.35,0.01268
2117.49,0.01313
2113.63,0.01317
2109.78,0.01301
2105.92,0.01266
2102.06,0.01247
2098.21,0.01208
2094.35,0.01181
2090.49,0.01171
2086.64,0.01127
2082.78,0.01059
2078.92,0.00975
2075.06,0.00891
2071.21,0.00841
2067.35,0.00773
2063.49,0.00707
2059.64,0.00659
2055.78,0.00580
2051.92,0.00479
2048.07,0.00286
2044.21,0.00194
2040.35,0.00146
2036.49,0.00041
2032.64,0.00000
2028.78,-0.00006
2024.92,-0.00002
2021.07,0.00012
2017.21,0.00028
2013.35,0.00036
2009.5,0.00039
2005.64,0.00068
2001.78,0.00135
1997.92,0.00174
1994.07,0.00188
1990.21,0.00200
1986.35,0.00169
1982.5,0.00143
1978.64,0.00095
1974.78,0.00103
1970.93,0.00250
1967.07,0.00475
1963.21,0.00719
1959.35,0.00804
1955.5,0.00720
1951.64,0.00617
1947.78,0.00517
1943.93,0.00418
1940.07,0.00316
1936.21,0.00238
1932.36,0.00179
1928.5,0.00151
1924.64,0.00118
1920.78,0.00085
1916.93,0.00055
1913.07,0.00039
1909.21,0.00030
1905.36,0.00016
1901.5,0.00000
1897.64,-0.00008
1893.79,-0.00014
1889.93,-0.00018
1886.07,-0.00026
1882.21,-0.00029
1878.36,-0.00033
1874.5,-0.00030
1870.64,-0.00021
1866.79,0.00001
1862.93,0.00009
1859.07,0.00000
1855.22,0.00007
1851.36,0.00037
1847.5,0.00079
1843.64,0.00131
1839.79,0.00178
1835.93,0.00221
1832.07,0.00259
1828.22,0.00272
1824.36,0.00259
1820.5,0.00224
1816.65,0.00200
1812.79,0.00186
1808.93,0.00168
1805.07,0.00134
1801.22,0.00090
1797.36,0.00051
1793.5,0.00022
1789.65,0.00012
1785.79,0.00000
1781.93,-0.00005
1778.08,0.00011
1774.22,0.00045
1770.36,0.00111
1766.5,0.00216
1762.65,0.00378
1758.79,0.00642
1754.93,0.01100
1751.08,0.01969
1747.22,0.03768
1743.36,0.07304
1739.51,0.12781
1735.65,0.19686
1731.79,0.27986
1727.93,0.37435
1724.08,0.47713
1720.22,0.58947
1716.36,0.69800
1712.51,0.71504
1708.65,0.59594
1704.79,0.44016
1700.94,0.31087
1697.08,0.22589
1693.22,0.17284
1689.36,0.13832
1685.51,0.12261
1681.65,0.11170
1677.79,0.09060
1673.94,0.07473
1670.08,0.06221
1666.22,0.04947
1662.37,0.03812
1658.51,0.03016
1654.65,0.02479
1650.79,0.02087
1646.94,0.01807
1643.08,0.01517
1639.22,0.01247
1635.37,0.01031
1631.51,0.00867
1627.65,0.00734
1623.8,0.00621
1619.94,0.00616
1616.08,0.00828
1612.22,0.00839
1608.37,0.00557
1604.51,0.00340
1600.65,0.00174
1596.8,0.00032
1592.94,0.00000
1589.08,0.00075
1585.23,0.00405
1581.37,0.01251
1577.51,0.01643
1573.65,0.00947
1569.8,0.00344
1565.94,0.00092
1562.08,0.00010
1558.23,0.00004
1554.37,0.00029
1550.51,0.00042
1546.66,0.00034
1542.8,0.00002
1538.94,-0.00018
1535.08,-0.00009
1531.23,0.00078
1527.37,0.00227
1523.51,0.00293
1519.66,0.00227
1515.8,0.00339
1511.94,0.01015
1508.09,0.03863
1504.23,0.05568
1500.37,0.01918
1496.51,0.00336
1492.66,0.00017
1488.8,0.00029
1484.94,0.00275
1481.09,0.00745
1477.23,0.01533
1473.37,0.03211
1469.52,0.03472
1465.66,0.01965
1461.8,0.01859
1457.94,0.02093
1454.09,0.02208
1450.23,0.01978
1446.37,0.01641
1442.52,0.01401
1438.66,0.01112
1434.8,0.00658
1430.95,0.00193
1427.09,0.00000
1423.23,0.00209
1419.37,0.01294
1415.52,0.04830
1411.66,0.11101
1407.8,0.12297
1403.95,0.07443
1400.09,0.03926
1396.23,0.02395
1392.38,0.01991
1388.52,0.02329
1384.66,0.02403
1380.8,0.01793
1376.95,0.01502
1373.09,0.01663
1369.23,0.01716
1365.38,0.01005
1361.52,0.00198
1357.66,0.00000
1353.81,0.00401
1349.95,0.01921
1346.09,0.06607
1342.23,0.16221
1338.38,0.19240
1334.52,0.09717
1330.66,0.02505
1326.81,0.00418
1322.95,0.00144
1319.09,0.00371
1315.24,0.00814
1311.38,0.01454
1307.52,0.02353
1303.66,0.03491
1299.81,0.05205
1295.95,0.07468
1292.09,0.09849
1288.24,0.12195
1284.38,0.14753
1280.52,0.17761
1276.67,0.21231
1272.81,0.25141
1268.95,0.29626
1265.09,0.34292
1261.24,0.38165
1257.38,0.40913
1253.52,0.44191
1249.67,0.48570
1245.81,0.52346
1241.95,0.53609
1238.1,0.50954
1234.24,0.45588
1230.38,0.40646
1226.52,0.37309
1222.67,0.34450
1218.81,0.30085
1214.95,0.25207
1211.1,0.21369
1207.24,0.18090
1203.38,0.14698
1199.53,0.11440
1195.67,0.08543
1191.81,0.06217
1187.95,0.04563
1184.1,0.03563
1180.24,0.03135
1176.38,0.02926
1172.53,0.02227
1168.67,0.00909
1164.81,0.00084
1160.96,0.00004
1157.1,0.00234
1153.24,0.00784
1149.39,0.01737
1145.53,0.03254
1141.67,0.05724
1137.81,0.09734
1133.96,0.15871
1130.1,0.23241
1126.24,0.29813
1122.39,0.34170
1118.53,0.35619
1114.67,0.34402
1110.82,0.35394
1106.96,0.38036
1103.1,0.41569
1099.24,0.44112
1095.39,0.44012
1091.53,0.41400
1087.67,0.37886
1083.82,0.34357
1079.96,0.30337
1076.1,0.25988
1072.25,0.22190
1068.39,0.19017
1064.53,0.16314
1060.67,0.14077
1056.82,0.12421
1052.96,0.11497
1049.1,0.11112
1045.25,0.10745
1041.39,0.09842
1037.53,0.08274
1033.68,0.06387
1029.82,0.04900
1025.96,0.08913
1022.1,0.20795
1018.25,0.26404
1014.39,0.23096
1010.53,0.15822
1006.68,0.11429
1002.82,0.08850
998.962,0.07156
995.105,0.05939
991.248,0.05508
987.391,0.05413
983.534,0.04666
979.677,0.04999
975.82,0.06722
971.963,0.09392
968.106,0.09593
964.249,0.07745
960.392,0.05976
956.535,0.04627
952.678,0.03652
948.821,0.02941
944.964,0.02379
941.107,0.01922
937.25,0.01533
933.393,0.01197
929.536,0.00898
925.679,0.00639
921.822,0.00429
917.965,0.00289
914.108,0.00265
910.251,0.00430
906.394,0.00849
902.537,0.01382
898.68,0.01683
894.823,0.01592
890.966,0.01371
887.109,0.01455
883.252,0.02204
879.395,0.04015
875.538,0.08326
871.681,0.16017
867.824,0.07906
863.967,0.04030
860.11,0.03425
856.253,0.03991
852.396,0.05174
848.539,0.06633
844.682,0.06439
840.825,0.05157
836.968,0.04034
833.111,0.03118
829.254,0.02414
825.397,0.01919
821.54,0.01608
817.683,0.01458
813.826,0.01392
809.969,0.01381
806.112,0.01445
802.255,0.01545
798.398,0.01764
794.541,0.02901
790.684,0.02928
786.827,0.02032
782.97,0.01348
779.113,0.00971
775.256,0.00737
771.399,0.00550
767.542,0.00373
763.685,0.00227
759.828,0.00147
755.971,0.00113
752.114,0.00118
748.257,0.00000
744.4,0.00106
740.543,0.01593
736.686,0.06801
732.829,0.16999
728.972,0.30396
725.115,0.45185
721.258,0.44006
717.401,0.34884
713.544,0.26741
709.687,0.20110
705.83,0.15084
701.973,0.11641
698.116,0.08638
694.259,0.06463
690.402,0.05122
686.545,0.04260
682.688,0.03694
678.831,0.03289
674.974,0.02674
671.117,0.02079
667.26,0.01430
663.403,0.01258
659.546,0.00889
655.689,0.00525
651.832,0.00170
649.904,0.00000