File: Exploratory-Data-Science/Model Testing of Backsheet Color and FTIR Data/FTIR/DampHeat-FTIR/UL DH 1000HR PET 3.079-2.SPA.dpt
3999.71,0.00143
3995.85,0.00136
3991.99,0.00113
3988.13,0.00089
3984.28,0.00071
3980.42,0.00073
3976.56,0.00068
3972.71,0.00054
3968.85,0.00044
3964.99,0.00031
3961.14,0.00018
3957.28,0.00011
3953.42,-0.00001
3949.56,0.00000
3945.71,0.00002
3941.85,-0.00005
3937.99,-0.00000
3934.14,-0.00001
3930.28,-0.00012
3926.42,0.00008
3922.57,0.00010
3918.71,0.00002
3914.85,0.00026
3910.99,0.00036
3907.14,0.00044
3903.28,-0.00004
3899.42,0.00012
3895.57,0.00057
3891.71,0.00033
3887.85,0.00063
3884,0.00049
3880.14,0.00051
3876.28,0.00089
3872.42,0.00080
3868.57,0.00071
3864.71,0.00094
3860.85,0.00153
3857,0.00151
3853.14,0.00000
3849.28,0.00164
3845.43,0.00156
3841.57,0.00128
3837.71,0.00030
3833.85,0.00095
3830,0.00098
3826.14,0.00105
3822.28,0.00044
3818.43,0.00063
3814.57,0.00052
3810.71,0.00096
3806.86,0.00028
3803,0.00038
3799.14,0.00057
3795.28,0.00076
3791.43,0.00083
3787.57,0.00080
3783.71,0.00083
3779.86,0.00074
3776,0.00100
3772.14,0.00097
3768.29,0.00090
3764.43,0.00105
3760.57,0.00102
3756.72,0.00123
3752.86,0.00035
3749,0.00017
3745.14,0.00000
3741.29,0.00118
3737.43,0.00060
3733.57,0.00037
3729.72,0.00078
3725.86,0.00059
3722,0.00043
3718.15,0.00046
3714.29,0.00020
3710.43,-0.00021
3706.57,0.00029
3702.72,0.00024
3698.86,0.00044
3695,0.00055
3691.15,0.00037
3687.29,0.00014
3683.43,0.00083
3679.58,0.00051
3675.72,-0.00049
3671.86,-0.00012
3668,0.00001
3664.15,0.00058
3660.29,0.00067
3656.43,0.00038
3652.58,0.00076
3648.72,0.00000
3644.86,0.00099
3641.01,0.00108
3637.15,0.00089
3633.29,0.00081
3629.43,-0.00018
3625.58,0.00064
3621.72,0.00049
3617.86,0.00010
3614.01,0.00011
3610.15,-0.00008
3606.29,0.00005
3602.44,0.00012
3598.58,0.00009
3594.72,0.00010
3590.86,0.00011
3587.01,0.00000
3583.15,0.00035
3579.29,0.00027
3575.44,0.00033
3571.58,0.00032
3567.72,0.00001
3563.87,0.00041
3560.01,0.00037
3556.15,0.00048
3552.29,0.00061
3548.44,0.00050
3544.58,0.00040
3540.72,0.00036
3536.87,0.00037
3533.01,0.00028
3529.15,0.00015
3525.3,0.00009
3521.44,-0.00005
3517.58,-0.00014
3513.72,-0.00016
3509.87,-0.00035
3506.01,-0.00017
3502.15,-0.00024
3498.3,-0.00033
3494.44,-0.00012
3490.58,-0.00010
3486.73,-0.00014
3482.87,-0.00008
3479.01,-0.00009
3475.15,-0.00024
3471.3,-0.00022
3467.44,-0.00028
3463.58,-0.00037
3459.73,-0.00022
3455.87,-0.00008
3452.01,0.00009
3448.16,0.00027
3444.3,0.00057
3440.44,0.00097
3436.58,0.00168
3432.73,0.00272
3428.87,0.00305
3425.01,0.00214
3421.16,0.00113
3417.3,0.00057
3413.44,0.00018
3409.59,0.00006
3405.73,0.00015
3401.87,0.00059
3398.01,0.00104
3394.16,0.00134
3390.3,0.00120
3386.44,0.00066
3382.59,0.00028
3378.73,0.00008
3374.87,-0.00011
3371.02,-0.00043
3367.16,-0.00062
3363.3,-0.00083
3359.44,-0.00090
3355.59,-0.00101
3351.73,-0.00084
3347.87,-0.00069
3344.02,-0.00064
3340.16,-0.00032
3336.3,-0.00020
3332.45,-0.00001
3328.59,-0.00007
3324.73,0.00000
3320.87,0.00005
3317.02,0.00013
3313.16,0.00036
3309.3,0.00077
3305.45,0.00130
3301.59,0.00175
3297.73,0.00223
3293.88,0.00256
3290.02,0.00273
3286.16,0.00250
3282.3,0.00236
3278.45,0.00198
3274.59,0.00149
3270.73,0.00107
3266.88,0.00069
3263.02,0.00026
3259.16,-0.00004
3255.31,-0.00030
3251.45,-0.00042
3247.59,-0.00043
3243.73,-0.00056
3239.88,-0.00043
3236.02,-0.00041
3232.16,-0.00032
3228.31,-0.00016
3224.45,-0.00008
3220.59,0.00000
3216.74,0.00003
3212.88,0.00000
3209.02,-0.00007
3205.16,0.00002
3201.31,0.00012
3197.45,0.00023
3193.59,0.00040
3189.74,0.00037
3185.88,0.00049
3182.02,0.00043
3178.17,0.00030
3174.31,0.00016
3170.45,0.00006
3166.59,-0.00015
3162.74,-0.00037
3158.88,-0.00054
3155.02,-0.00065
3151.17,-0.00073
3147.31,-0.00072
3143.45,-0.00070
3139.6,-0.00063
3135.74,-0.00051
3131.88,-0.00021
3128.02,-0.00014
3124.17,-0.00009
3120.31,-0.00005
3116.45,0.00005
3112.6,0.00017
3108.74,0.00055
3104.88,0.00088
3101.03,0.00107
3097.17,0.00066
3093.31,0.00051
3089.45,0.00058
3085.6,0.00104
3081.74,0.00126
3077.88,0.00135
3074.03,0.00130
3070.17,0.00148
3066.31,0.00147
3062.46,0.00139
3058.6,0.00195
3054.74,0.00269
3050.88,0.00206
3047.03,0.00091
3043.17,-0.00002
3039.31,-0.00030
3035.46,-0.00024
3031.6,-0.00013
3027.74,-0.00005
3023.89,0.00014
3020.03,0.00102
3016.17,0.00266
3012.31,0.00294
3008.46,0.00244
3004.6,0.00211
3000.74,0.00194
2996.89,0.00188
2993.03,0.00219
2989.17,0.00276
2985.32,0.00384
2981.46,0.00559
2977.6,0.00843
2973.74,0.01236
2969.89,0.01559
2966.03,0.01518
2962.17,0.01381
2958.32,0.01286
2954.46,0.01166
2950.6,0.00995
2946.75,0.00833
2942.89,0.00740
2939.03,0.00765
2935.17,0.00906
2931.32,0.01107
2927.46,0.01397
2923.6,0.01813
2919.75,0.02098
2915.89,0.02024
2912.03,0.01848
2908.18,0.01738
2904.32,0.01466
2900.46,0.01067
2896.6,0.00812
2892.75,0.00670
2888.89,0.00593
2885.03,0.00513
2881.18,0.00442
2877.32,0.00396
2873.46,0.00407
2869.61,0.00426
2865.75,0.00464
2861.89,0.00589
2858.03,0.00802
2854.18,0.01081
2850.32,0.01372
2846.46,0.01125
2842.61,0.00529
2838.75,0.00245
2834.89,0.00119
2831.04,0.00053
2827.18,0.00023
2823.32,0.00002
2819.46,0.00000
2815.61,0.00007
2811.75,0.00014
2807.89,0.00031
2804.04,0.00036
2800.18,0.00028
2796.32,0.00010
2792.47,-0.00006
2788.61,-0.00010
2784.75,-0.00016
2780.89,-0.00021
2777.04,-0.00023
2773.18,-0.00016
2769.32,-0.00011
2765.47,-0.00005
2761.61,0.00000
2757.75,0.00005
2753.9,0.00013
2750.04,0.00018
2746.18,0.00023
2742.32,0.00018
2738.47,0.00008
2734.61,-0.00004
2730.75,-0.00011
2726.9,-0.00016
2723.04,-0.00019
2719.18,-0.00012
2715.33,-0.00012
2711.47,-0.00004
2707.61,-0.00000
2703.75,-0.00003
2699.9,0.00004
2696.04,-0.00008
2692.18,-0.00018
2688.33,-0.00021
2684.47,-0.00028
2680.61,-0.00030
2676.76,-0.00029
2672.9,-0.00029
2669.04,-0.00022
2665.18,-0.00012
2661.33,-0.00003
2657.47,-0.00005
2653.61,-0.00004
2649.76,0.00000
2645.9,0.00002
2642.04,0.00007
2638.19,0.00023
2634.33,0.00036
2630.47,0.00036
2626.61,0.00019
2622.76,0.00008
2618.9,0.00003
2615.04,-0.00004
2611.19,-0.00000
2607.33,-0.00009
2603.47,0.00002
2599.62,0.00000
2595.76,0.00005
2591.9,0.00008
2588.04,0.00012
2584.19,0.00014
2580.33,-0.00000
2576.47,0.00002
2572.62,-0.00002
2568.76,-0.00006
2564.9,-0.00003
2561.05,0.00002
2557.19,0.00000
2553.33,0.00007
2549.47,0.00008
2545.62,0.00008
2541.76,0.00007
2537.9,0.00008
2534.05,0.00013
2530.19,0.00011
2526.33,0.00001
2522.48,0.00002
2518.62,-0.00002
2514.76,-0.00006
2510.9,-0.00003
2507.05,0.00000
2503.19,0.00002
2499.33,0.00003
2495.48,0.00005
2491.62,0.00007
2487.76,-0.00002
2483.91,0.00000
2480.05,-0.00010
2476.19,-0.00000
2472.33,-0.00008
2468.48,-0.00005
2464.62,-0.00003
2460.76,0.00001
2456.91,-0.00003
2453.05,0.00001
2449.19,-0.00002
2445.34,-0.00000
2441.48,-0.00001
2437.62,-0.00003
2433.77,-0.00000
2429.91,0.00000
2426.05,0.00006
2422.19,0.00011
2418.34,0.00017
2414.48,0.00021
2410.62,0.00036
2406.77,0.00051
2402.91,0.00070
2399.05,0.00089
2395.2,0.00104
2391.34,0.00121
2387.48,0.00131
2383.62,0.00143
2379.77,0.00153
2375.91,0.00181
2372.05,0.00207
2368.2,0.00213
2364.34,0.00209
2360.48,0.00198
2356.63,0.00175
2352.77,0.00143
2348.91,0.00114
2345.05,0.00148
2341.2,0.00163
2337.34,0.00175
2333.48,0.00181
2329.63,0.00173
2325.77,0.00172
2321.91,0.00158
2318.06,0.00130
2314.2,0.00105
2310.34,0.00096
2306.48,0.00100
2302.63,0.00108
2298.77,0.00128
2294.91,0.00155
2291.06,0.00175
2287.2,0.00189
2283.34,0.00177
2279.49,0.00154
2275.63,0.00138
2271.77,0.00131
2267.91,0.00116
2264.06,0.00102
2260.2,0.00095
2256.34,0.00085
2252.49,0.00051
2248.63,0.00036
2244.77,0.00034
2240.92,0.00014
2237.06,0.00006
2233.2,0.00000
2229.34,0.00018
2225.49,0.00009
2221.63,0.00008
2217.77,0.00030
2213.92,0.00030
2210.06,0.00035
2206.2,0.00025
2202.35,0.00018
2198.49,0.00015
2194.63,0.00010
2190.77,0.00024
2186.92,0.00002
2183.06,0.00000
2179.2,0.00018
2175.35,0.00080
2171.49,0.00133
2167.63,0.00144
2163.78,0.00102
2159.92,0.00000
2156.06,0.00123
2152.2,0.00349
2148.35,0.00473
2144.49,0.00594
2140.63,0.00688
2136.78,0.00760
2132.92,0.00875
2129.06,0.00989
2125.21,0.01082
2121.35,0.01142
2117.49,0.01180
2113.63,0.01204
2109.78,0.01187
2105.92,0.01166
2102.06,0.01146
2098.21,0.01127
2094.35,0.01099
2090.49,0.01083
2086.64,0.01051
2082.78,0.00998
2078.92,0.00949
2075.06,0.00890
2071.21,0.00822
2067.35,0.00773
2063.49,0.00714
2059.64,0.00674
2055.78,0.00614
2051.92,0.00526
2048.07,0.00344
2044.21,0.00231
2040.35,0.00162
2036.49,0.00060
2032.64,0.00005
2028.78,0.00003
2024.92,0.00002
2021.07,0.00005
2017.21,0.00020
2013.35,0.00035
2009.5,0.00043
2005.64,0.00070
2001.78,0.00141
1997.92,0.00179
1994.07,0.00199
1990.21,0.00218
1986.35,0.00185
1982.5,0.00161
1978.64,0.00079
1974.78,0.00089
1970.93,0.00188
1967.07,0.00339
1963.21,0.00518
1959.35,0.00588
1955.5,0.00537
1951.64,0.00452
1947.78,0.00389
1943.93,0.00309
1940.07,0.00254
1936.21,0.00196
1932.36,0.00159
1928.5,0.00121
1924.64,0.00106
1920.78,0.00076
1916.93,0.00055
1913.07,0.00049
1909.21,0.00029
1905.36,0.00018
1901.5,0.00012
1897.64,0.00000
1893.79,0.00000
1889.93,-0.00009
1886.07,-0.00010
1882.21,-0.00015
1878.36,-0.00018
1874.5,-0.00018
1870.64,-0.00020
1866.79,-0.00007
1862.93,0.00006
1859.07,0.00000
1855.22,0.00010
1851.36,0.00036
1847.5,0.00066
1843.64,0.00085
1839.79,0.00142
1835.93,0.00180
1832.07,0.00190
1828.22,0.00199
1824.36,0.00182
1820.5,0.00164
1816.65,0.00139
1812.79,0.00131
1808.93,0.00120
1805.07,0.00102
1801.22,0.00065
1797.36,0.00048
1793.5,0.00018
1789.65,0.00012
1785.79,0.00000
1781.93,-0.00000
1778.08,0.00002
1774.22,0.00002
1770.36,0.00044
1766.5,0.00127
1762.65,0.00228
1758.79,0.00423
1754.93,0.00746
1751.08,0.01337
1747.22,0.02633
1743.36,0.05169
1739.51,0.09100
1735.65,0.14045
1731.79,0.19929
1727.93,0.26368
1724.08,0.32855
1720.22,0.39285
1716.36,0.45640
1712.51,0.49066
1708.65,0.43664
1704.79,0.33936
1700.94,0.24809
1697.08,0.18401
1693.22,0.14248
1689.36,0.11427
1685.51,0.09967
1681.65,0.09124
1677.79,0.07526
1673.94,0.06256
1670.08,0.05268
1666.22,0.04300
1662.37,0.03408
1658.51,0.02827
1654.65,0.02413
1650.79,0.02350
1646.94,0.02492
1643.08,0.02361
1639.22,0.01939
1635.37,0.01480
1631.51,0.01185
1627.65,0.00951
1623.8,0.00742
1619.94,0.00657
1616.08,0.00724
1612.22,0.00743
1608.37,0.00500
1604.51,0.00306
1600.65,0.00156
1596.8,0.00025
1592.94,-0.00003
1589.08,0.00058
1585.23,0.00324
1581.37,0.00989
1577.51,0.01303
1573.65,0.00853
1569.8,0.00429
1565.94,0.00308
1562.08,0.00270
1558.23,0.00213
1554.37,0.00282
1550.51,0.00277
1546.66,0.00220
1542.8,0.00105
1538.94,0.00000
1535.08,0.00019
1531.23,0.00061
1527.37,0.00149
1523.51,0.00168
1519.66,0.00097
1515.8,0.00185
1511.94,0.00675
1508.09,0.02772
1504.23,0.04160
1500.37,0.01458
1496.51,0.00226
1492.66,0.00008
1488.8,0.00017
1484.94,0.00206
1481.09,0.00550
1477.23,0.01122
1473.37,0.02361
1469.52,0.02751
1465.66,0.01590
1461.8,0.01449
1457.94,0.01546
1454.09,0.01641
1450.23,0.01466
1446.37,0.01205
1442.52,0.01035
1438.66,0.00818
1434.8,0.00494
1430.95,0.00153
1427.09,0.00000
1423.23,0.00172
1419.37,0.00972
1415.52,0.03583
1411.66,0.08188
1407.8,0.09153
1403.95,0.05622
1400.09,0.02978
1396.23,0.01809
1392.38,0.01500
1388.52,0.01754
1384.66,0.01834
1380.8,0.01371
1376.95,0.01130
1373.09,0.01232
1369.23,0.01273
1365.38,0.00748
1361.52,0.00148
1357.66,0.00000
1353.81,0.00272
1349.95,0.01388
1346.09,0.04885
1342.23,0.12128
1338.38,0.14770
1334.52,0.07675
1330.66,0.01990
1326.81,0.00296
1322.95,0.00046
1319.09,0.00190
1315.24,0.00500
1311.38,0.00967
1307.52,0.01645
1303.66,0.02524
1299.81,0.03834
1295.95,0.05534
1292.09,0.07316
1288.24,0.09082
1284.38,0.10985
1280.52,0.13187
1276.67,0.15719
1272.81,0.18535
1268.95,0.21685
1265.09,0.24832
1261.24,0.27309
1257.38,0.29040
1253.52,0.31278
1249.67,0.34451
1245.81,0.37525
1241.95,0.39361
1238.1,0.38953
1234.24,0.36562
1230.38,0.33791
1226.52,0.31472
1222.67,0.29311
1218.81,0.26079
1214.95,0.22252
1211.1,0.19099
1207.24,0.16372
1203.38,0.13510
1199.53,0.10706
1195.67,0.08155
1191.81,0.06046
1187.95,0.04489
1184.1,0.03477
1180.24,0.02962
1176.38,0.02672
1172.53,0.02004
1168.67,0.00858
1164.81,0.00112
1160.96,0.00000
1157.1,0.00132
1153.24,0.00520
1149.39,0.01219
1145.53,0.02358
1141.67,0.04224
1137.81,0.07267
1133.96,0.11896
1130.1,0.17405
1126.24,0.22359
1122.39,0.25785
1118.53,0.27084
1114.67,0.26204
1110.82,0.27033
1106.96,0.29041
1103.1,0.31554
1099.24,0.33498
1095.39,0.33856
1091.53,0.32651
1087.67,0.30794
1083.82,0.28855
1079.96,0.26424
1076.1,0.23430
1072.25,0.20533
1068.39,0.17968
1064.53,0.15684
1060.67,0.13712
1056.82,0.12150
1052.96,0.11144
1049.1,0.10597
1045.25,0.10130
1041.39,0.09301
1037.53,0.07928
1033.68,0.06208
1029.82,0.04657
1025.96,0.07494
1022.1,0.17188
1018.25,0.22016
1014.39,0.20598
1010.53,0.15266
1006.68,0.11589
1002.82,0.09305
998.962,0.07747
995.105,0.06588
991.248,0.06059
987.391,0.05906
983.534,0.05179
979.677,0.05299
975.82,0.06598
971.963,0.08878
968.106,0.09341
964.249,0.07956
960.392,0.06502
956.535,0.05341
952.678,0.04481
948.821,0.03838
944.964,0.03325
941.107,0.02896
937.25,0.02524
933.393,0.02195
929.536,0.01902
925.679,0.01642
921.822,0.01423
917.965,0.01268
914.108,0.01189
910.251,0.01269
906.394,0.01565
902.537,0.01960
898.68,0.02181
894.823,0.02086
890.966,0.01867
887.109,0.01880
883.252,0.02424
879.395,0.03819
875.538,0.07216
871.681,0.13134
867.824,0.06933
863.967,0.03886
860.11,0.03372
856.253,0.03822
852.396,0.04803
848.539,0.06090
844.682,0.06059
840.825,0.05041
836.968,0.04101
833.111,0.03316
829.254,0.02698
825.397,0.02255
821.54,0.01959
817.683,0.01793
813.826,0.01702
809.969,0.01653
806.112,0.01674
802.255,0.01725
798.398,0.01867
794.541,0.02795
790.684,0.02852
786.827,0.02086
782.97,0.01479
779.113,0.01122
775.256,0.00889
771.399,0.00692
767.542,0.00493
763.685,0.00318
759.828,0.00201
755.971,0.00120
752.114,0.00068
748.257,0.00000
744.4,0.00075
740.543,0.01330
736.686,0.05913
732.829,0.14987
728.972,0.26487
725.115,0.37929
721.258,0.36576
717.401,0.28850
713.544,0.21985
709.687,0.16661
705.83,0.12646
701.973,0.09857
698.116,0.07415
694.259,0.05599
690.402,0.04460
686.545,0.03725
682.688,0.03235
678.831,0.02880
674.974,0.02353
671.117,0.01851
667.26,0.01449
663.403,0.01104
659.546,0.00787
655.689,0.00477
651.832,0.00161
649.904,0.00000