File: Exploratory-Data-Science/Model Testing of Backsheet Color and FTIR Data/FTIR/DampHeat-FTIR/UL DH 1000HR PET 3.079-1.SPA.dpt
3999.71,0.00191
3995.85,0.00180
3991.99,0.00148
3988.13,0.00118
3984.28,0.00098
3980.42,0.00085
3976.56,0.00075
3972.71,0.00068
3968.85,0.00054
3964.99,0.00033
3961.14,0.00023
3957.28,0.00015
3953.42,0.00006
3949.56,0.00000
3945.71,-0.00006
3941.85,-0.00007
3937.99,-0.00006
3934.14,-0.00020
3930.28,-0.00019
3926.42,-0.00008
3922.57,-0.00007
3918.71,-0.00015
3914.85,0.00012
3910.99,0.00021
3907.14,0.00029
3903.28,-0.00024
3899.42,0.00000
3895.57,0.00040
3891.71,0.00016
3887.85,0.00040
3884,0.00039
3880.14,0.00042
3876.28,0.00078
3872.42,0.00071
3868.57,0.00064
3864.71,0.00092
3860.85,0.00139
3857,0.00151
3853.14,0.00000
3849.28,0.00167
3845.43,0.00155
3841.57,0.00125
3837.71,0.00028
3833.85,0.00094
3830,0.00098
3826.14,0.00089
3822.28,0.00035
3818.43,0.00054
3814.57,0.00042
3810.71,0.00096
3806.86,0.00033
3803,0.00037
3799.14,0.00059
3795.28,0.00069
3791.43,0.00081
3787.57,0.00072
3783.71,0.00079
3779.86,0.00068
3776,0.00087
3772.14,0.00090
3768.29,0.00084
3764.43,0.00093
3760.57,0.00094
3756.72,0.00111
3752.86,0.00029
3749,0.00011
3745.14,0.00000
3741.29,0.00102
3737.43,0.00059
3733.57,0.00031
3729.72,0.00071
3725.86,0.00055
3722,0.00023
3718.15,0.00034
3714.29,0.00005
3710.43,-0.00031
3706.57,0.00013
3702.72,0.00017
3698.86,0.00031
3695,0.00040
3691.15,0.00031
3687.29,0.00012
3683.43,0.00071
3679.58,0.00047
3675.72,-0.00050
3671.86,-0.00023
3668,-0.00001
3664.15,0.00045
3660.29,0.00061
3656.43,0.00026
3652.58,0.00059
3648.72,0.00000
3644.86,0.00097
3641.01,0.00103
3637.15,0.00090
3633.29,0.00087
3629.43,-0.00009
3625.58,0.00060
3621.72,0.00049
3617.86,0.00002
3614.01,0.00014
3610.15,-0.00010
3606.29,0.00006
3602.44,0.00005
3598.58,0.00000
3594.72,0.00010
3590.86,0.00009
3587.01,0.00000
3583.15,0.00033
3579.29,0.00038
3575.44,0.00033
3571.58,0.00033
3567.72,0.00013
3563.87,0.00048
3560.01,0.00048
3556.15,0.00069
3552.29,0.00073
3548.44,0.00065
3544.58,0.00056
3540.72,0.00051
3536.87,0.00053
3533.01,0.00037
3529.15,0.00027
3525.3,0.00008
3521.44,-0.00004
3517.58,-0.00006
3513.72,-0.00007
3509.87,-0.00024
3506.01,-0.00016
3502.15,-0.00025
3498.3,-0.00026
3494.44,-0.00017
3490.58,-0.00013
3486.73,-0.00020
3482.87,-0.00009
3479.01,-0.00010
3475.15,-0.00032
3471.3,-0.00036
3467.44,-0.00029
3463.58,-0.00045
3459.73,-0.00035
3455.87,-0.00020
3452.01,-0.00001
3448.16,0.00011
3444.3,0.00047
3440.44,0.00110
3436.58,0.00194
3432.73,0.00323
3428.87,0.00351
3425.01,0.00243
3421.16,0.00130
3417.3,0.00060
3413.44,0.00017
3409.59,-0.00005
3405.73,0.00013
3401.87,0.00051
3398.01,0.00108
3394.16,0.00153
3390.3,0.00133
3386.44,0.00083
3382.59,0.00038
3378.73,0.00006
3374.87,-0.00014
3371.02,-0.00052
3367.16,-0.00074
3363.3,-0.00089
3359.44,-0.00100
3355.59,-0.00104
3351.73,-0.00094
3347.87,-0.00080
3344.02,-0.00054
3340.16,-0.00032
3336.3,-0.00016
3332.45,-0.00002
3328.59,-0.00009
3324.73,0.00000
3320.87,0.00006
3317.02,0.00008
3313.16,0.00032
3309.3,0.00066
3305.45,0.00127
3301.59,0.00164
3297.73,0.00220
3293.88,0.00250
3290.02,0.00259
3286.16,0.00244
3282.3,0.00221
3278.45,0.00187
3274.59,0.00135
3270.73,0.00095
3266.88,0.00058
3263.02,0.00015
3259.16,-0.00017
3255.31,-0.00048
3251.45,-0.00055
3247.59,-0.00058
3243.73,-0.00067
3239.88,-0.00051
3236.02,-0.00045
3232.16,-0.00036
3228.31,-0.00018
3224.45,-0.00011
3220.59,0.00000
3216.74,-0.00013
3212.88,-0.00009
3209.02,-0.00006
3205.16,0.00002
3201.31,0.00010
3197.45,0.00024
3193.59,0.00039
3189.74,0.00042
3185.88,0.00057
3182.02,0.00058
3178.17,0.00035
3174.31,0.00018
3170.45,0.00007
3166.59,-0.00013
3162.74,-0.00032
3158.88,-0.00059
3155.02,-0.00069
3151.17,-0.00078
3147.31,-0.00073
3143.45,-0.00067
3139.6,-0.00056
3135.74,-0.00036
3131.88,-0.00013
3128.02,-0.00009
3124.17,0.00001
3120.31,0.00000
3116.45,0.00012
3112.6,0.00027
3108.74,0.00074
3104.88,0.00107
3101.03,0.00129
3097.17,0.00087
3093.31,0.00059
3089.45,0.00069
3085.6,0.00122
3081.74,0.00156
3077.88,0.00164
3074.03,0.00162
3070.17,0.00178
3066.31,0.00185
3062.46,0.00177
3058.6,0.00255
3054.74,0.00334
3050.88,0.00256
3047.03,0.00111
3043.17,0.00011
3039.31,-0.00017
3035.46,-0.00019
3031.6,-0.00010
3027.74,0.00000
3023.89,0.00037
3020.03,0.00148
3016.17,0.00343
3012.31,0.00382
3008.46,0.00318
3004.6,0.00285
3000.74,0.00273
2996.89,0.00271
2993.03,0.00308
2989.17,0.00374
2985.32,0.00508
2981.46,0.00727
2977.6,0.01059
2973.74,0.01534
2969.89,0.01905
2966.03,0.01836
2962.17,0.01646
2958.32,0.01524
2954.46,0.01369
2950.6,0.01164
2946.75,0.00965
2942.89,0.00858
2939.03,0.00880
2935.17,0.01022
2931.32,0.01232
2927.46,0.01544
2923.6,0.01990
2919.75,0.02301
2915.89,0.02240
2912.03,0.02079
2908.18,0.01988
2904.32,0.01679
2900.46,0.01214
2896.6,0.00920
2892.75,0.00767
2888.89,0.00678
2885.03,0.00587
2881.18,0.00499
2877.32,0.00452
2873.46,0.00463
2869.61,0.00486
2865.75,0.00531
2861.89,0.00660
2858.03,0.00889
2854.18,0.01184
2850.32,0.01491
2846.46,0.01220
2842.61,0.00581
2838.75,0.00264
2834.89,0.00123
2831.04,0.00062
2827.18,0.00026
2823.32,0.00006
2819.46,0.00004
2815.61,0.00012
2811.75,0.00018
2807.89,0.00037
2804.04,0.00044
2800.18,0.00033
2796.32,0.00018
2792.47,0.00001
2788.61,-0.00012
2784.75,-0.00017
2780.89,-0.00018
2777.04,-0.00024
2773.18,-0.00018
2769.32,-0.00012
2765.47,-0.00005
2761.61,0.00002
2757.75,0.00003
2753.9,0.00013
2750.04,0.00018
2746.18,0.00024
2742.32,0.00018
2738.47,0.00004
2734.61,-0.00007
2730.75,-0.00013
2726.9,-0.00020
2723.04,-0.00025
2719.18,-0.00016
2715.33,-0.00011
2711.47,-0.00006
2707.61,-0.00004
2703.75,0.00000
2699.9,0.00008
2696.04,-0.00006
2692.18,-0.00019
2688.33,-0.00019
2684.47,-0.00024
2680.61,-0.00020
2676.76,-0.00019
2672.9,-0.00020
2669.04,-0.00013
2665.18,-0.00009
2661.33,0.00001
2657.47,-0.00002
2653.61,-0.00001
2649.76,0.00003
2645.9,0.00007
2642.04,0.00013
2638.19,0.00034
2634.33,0.00052
2630.47,0.00047
2626.61,0.00037
2622.76,0.00019
2618.9,0.00009
2615.04,-0.00001
2611.19,0.00006
2607.33,-0.00002
2603.47,0.00000
2599.62,0.00007
2595.76,0.00014
2591.9,0.00015
2588.04,0.00021
2584.19,0.00021
2580.33,0.00007
2576.47,0.00006
2572.62,0.00001
2568.76,0.00000
2564.9,0.00014
2561.05,0.00014
2557.19,0.00008
2553.33,0.00020
2549.47,0.00014
2545.62,0.00016
2541.76,0.00018
2537.9,0.00021
2534.05,0.00028
2530.19,0.00030
2526.33,0.00016
2522.48,0.00013
2518.62,0.00003
2514.76,-0.00003
2510.9,0.00000
2507.05,0.00002
2503.19,0.00015
2499.33,0.00014
2495.48,0.00010
2491.62,0.00011
2487.76,0.00004
2483.91,-0.00001
2480.05,-0.00013
2476.19,-0.00007
2472.33,-0.00013
2468.48,-0.00009
2464.62,-0.00010
2460.76,-0.00007
2456.91,-0.00005
2453.05,0.00000
2449.19,-0.00002
2445.34,-0.00001
2441.48,0.00000
2437.62,-0.00001
2433.77,0.00000
2429.91,0.00004
2426.05,0.00010
2422.19,0.00022
2418.34,0.00023
2414.48,0.00032
2410.62,0.00044
2406.77,0.00064
2402.91,0.00082
2399.05,0.00108
2395.2,0.00122
2391.34,0.00136
2387.48,0.00143
2383.62,0.00158
2379.77,0.00170
2375.91,0.00190
2372.05,0.00206
2368.2,0.00206
2364.34,0.00191
2360.48,0.00176
2356.63,0.00149
2352.77,0.00128
2348.91,0.00102
2345.05,0.00128
2341.2,0.00141
2337.34,0.00158
2333.48,0.00157
2329.63,0.00150
2325.77,0.00154
2321.91,0.00138
2318.06,0.00111
2314.2,0.00087
2310.34,0.00081
2306.48,0.00085
2302.63,0.00098
2298.77,0.00122
2294.91,0.00159
2291.06,0.00189
2287.2,0.00200
2283.34,0.00196
2279.49,0.00158
2275.63,0.00141
2271.77,0.00132
2267.91,0.00126
2264.06,0.00124
2260.2,0.00113
2256.34,0.00096
2252.49,0.00071
2248.63,0.00058
2244.77,0.00034
2240.92,0.00014
2237.06,0.00006
2233.2,0.00001
2229.34,0.00027
2225.49,0.00022
2221.63,0.00017
2217.77,0.00016
2213.92,0.00015
2210.06,0.00018
2206.2,0.00016
2202.35,0.00014
2198.49,0.00017
2194.63,0.00025
2190.77,0.00029
2186.92,0.00029
2183.06,0.00009
2179.2,0.00017
2175.35,0.00088
2171.49,0.00153
2167.63,0.00172
2163.78,0.00120
2159.92,0.00001
2156.06,0.00128
2152.2,0.00375
2148.35,0.00532
2144.49,0.00641
2140.63,0.00741
2136.78,0.00829
2132.92,0.00948
2129.06,0.01069
2125.21,0.01158
2121.35,0.01238
2117.49,0.01270
2113.63,0.01299
2109.78,0.01281
2105.92,0.01246
2102.06,0.01219
2098.21,0.01201
2094.35,0.01172
2090.49,0.01151
2086.64,0.01113
2082.78,0.01063
2078.92,0.00996
2075.06,0.00929
2071.21,0.00863
2067.35,0.00811
2063.49,0.00732
2059.64,0.00689
2055.78,0.00631
2051.92,0.00532
2048.07,0.00358
2044.21,0.00242
2040.35,0.00171
2036.49,0.00063
2032.64,0.00012
2028.78,0.00009
2024.92,0.00000
2021.07,0.00006
2017.21,0.00038
2013.35,0.00034
2009.5,0.00046
2005.64,0.00081
2001.78,0.00154
1997.92,0.00182
1994.07,0.00207
1990.21,0.00221
1986.35,0.00212
1982.5,0.00170
1978.64,0.00096
1974.78,0.00093
1970.93,0.00215
1967.07,0.00370
1963.21,0.00568
1959.35,0.00631
1955.5,0.00587
1951.64,0.00492
1947.78,0.00419
1943.93,0.00339
1940.07,0.00281
1936.21,0.00212
1932.36,0.00165
1928.5,0.00137
1924.64,0.00109
1920.78,0.00088
1916.93,0.00062
1913.07,0.00046
1909.21,0.00030
1905.36,0.00018
1901.5,0.00015
1897.64,0.00000
1893.79,-0.00006
1889.93,-0.00009
1886.07,-0.00013
1882.21,-0.00016
1878.36,-0.00019
1874.5,-0.00020
1870.64,-0.00022
1866.79,-0.00008
1862.93,0.00006
1859.07,0.00000
1855.22,0.00003
1851.36,0.00036
1847.5,0.00068
1843.64,0.00093
1839.79,0.00151
1835.93,0.00188
1832.07,0.00205
1828.22,0.00213
1824.36,0.00194
1820.5,0.00175
1816.65,0.00145
1812.79,0.00134
1808.93,0.00126
1805.07,0.00100
1801.22,0.00063
1797.36,0.00041
1793.5,0.00007
1789.65,-0.00000
1785.79,-0.00012
1781.93,-0.00009
1778.08,-0.00005
1774.22,0.00002
1770.36,0.00053
1766.5,0.00149
1762.65,0.00267
1758.79,0.00484
1754.93,0.00849
1751.08,0.01517
1747.22,0.02966
1743.36,0.05792
1739.51,0.10156
1735.65,0.15641
1731.79,0.22184
1727.93,0.29430
1724.08,0.36902
1720.22,0.44523
1716.36,0.51814
1712.51,0.54463
1708.65,0.47306
1704.79,0.36095
1700.94,0.26044
1697.08,0.19161
1693.22,0.14762
1689.36,0.11818
1685.51,0.10345
1681.65,0.09456
1677.79,0.07744
1673.94,0.06413
1670.08,0.05376
1666.22,0.04357
1662.37,0.03431
1658.51,0.02840
1654.65,0.02430
1650.79,0.02384
1646.94,0.02552
1643.08,0.02421
1639.22,0.01981
1635.37,0.01503
1631.51,0.01187
1627.65,0.00947
1623.8,0.00732
1619.94,0.00646
1616.08,0.00738
1612.22,0.00759
1608.37,0.00504
1604.51,0.00304
1600.65,0.00153
1596.8,0.00023
1592.94,-0.00003
1589.08,0.00071
1585.23,0.00364
1581.37,0.01089
1577.51,0.01423
1573.65,0.00916
1569.8,0.00454
1565.94,0.00316
1562.08,0.00277
1558.23,0.00226
1554.37,0.00299
1550.51,0.00295
1546.66,0.00235
1542.8,0.00115
1538.94,0.00000
1535.08,0.00014
1531.23,0.00058
1527.37,0.00156
1523.51,0.00182
1519.66,0.00110
1515.8,0.00210
1511.94,0.00760
1508.09,0.03079
1504.23,0.04550
1500.37,0.01578
1496.51,0.00246
1492.66,0.00012
1488.8,0.00017
1484.94,0.00222
1481.09,0.00597
1477.23,0.01228
1473.37,0.02597
1469.52,0.03018
1465.66,0.01744
1461.8,0.01588
1457.94,0.01697
1454.09,0.01797
1450.23,0.01601
1446.37,0.01315
1442.52,0.01126
1438.66,0.00889
1434.8,0.00533
1430.95,0.00163
1427.09,0.00000
1423.23,0.00198
1419.37,0.01092
1415.52,0.03978
1411.66,0.09024
1407.8,0.10005
1403.95,0.06100
1400.09,0.03218
1396.23,0.01946
1392.38,0.01614
1388.52,0.01893
1384.66,0.01969
1380.8,0.01462
1376.95,0.01209
1373.09,0.01333
1369.23,0.01383
1365.38,0.00807
1361.52,0.00156
1357.66,0.00000
1353.81,0.00306
1349.95,0.01539
1346.09,0.05381
1342.23,0.13295
1338.38,0.16092
1334.52,0.08320
1330.66,0.02170
1326.81,0.00346
1322.95,0.00078
1319.09,0.00239
1315.24,0.00583
1311.38,0.01096
1307.52,0.01837
1303.66,0.02794
1299.81,0.04214
1295.95,0.06050
1292.09,0.07974
1288.24,0.09881
1284.38,0.11947
1280.52,0.14347
1276.67,0.17112
1272.81,0.20187
1268.95,0.23632
1265.09,0.27111
1261.24,0.29913
1257.38,0.31889
1253.52,0.34365
1249.67,0.37797
1245.81,0.40999
1241.95,0.42653
1238.1,0.41682
1234.24,0.38581
1230.38,0.35326
1226.52,0.32825
1222.67,0.30573
1218.81,0.27135
1214.95,0.23106
1211.1,0.19806
1207.24,0.16942
1203.38,0.13934
1199.53,0.10989
1195.67,0.08323
1191.81,0.06136
1187.95,0.04543
1184.1,0.03523
1180.24,0.03026
1176.38,0.02752
1172.53,0.02062
1168.67,0.00860
1164.81,0.00097
1160.96,-0.00011
1157.1,0.00150
1153.24,0.00582
1149.39,0.01352
1145.53,0.02594
1141.67,0.04623
1137.81,0.07919
1133.96,0.12931
1130.1,0.18908
1126.24,0.24258
1122.39,0.27916
1118.53,0.29262
1114.67,0.28305
1110.82,0.29170
1106.96,0.31319
1103.1,0.34035
1099.24,0.36063
1095.39,0.36274
1091.53,0.34721
1087.67,0.32471
1083.82,0.30149
1079.96,0.27343
1076.1,0.24052
1072.25,0.20976
1068.39,0.18295
1064.53,0.15928
1060.67,0.13902
1056.82,0.12324
1052.96,0.11342
1049.1,0.10831
1045.25,0.10378
1041.39,0.09517
1037.53,0.08083
1033.68,0.06309
1029.82,0.04768
1025.96,0.07934
1022.1,0.18204
1018.25,0.23201
1014.39,0.21293
1010.53,0.15524
1006.68,0.11682
1002.82,0.09319
998.962,0.07718
995.105,0.06536
991.248,0.06028
987.391,0.05887
983.534,0.05147
979.677,0.05320
975.82,0.06740
971.963,0.09134
968.106,0.09529
964.249,0.08019
960.392,0.06475
956.535,0.05252
952.678,0.04357
948.821,0.03689
944.964,0.03163
941.107,0.02721
937.25,0.02341
933.393,0.02008
929.536,0.01710
925.679,0.01449
921.822,0.01232
917.965,0.01082
914.108,0.01016
910.251,0.01113
906.394,0.01439
902.537,0.01864
898.68,0.02099
894.823,0.02001
890.966,0.01781
887.109,0.01811
883.252,0.02409
879.395,0.03915
875.538,0.07554
871.681,0.13920
867.824,0.07221
863.967,0.03951
860.11,0.03409
856.253,0.03888
852.396,0.04928
848.539,0.06262
844.682,0.06185
840.825,0.05095
836.968,0.04102
833.111,0.03283
829.254,0.02645
825.397,0.02192
821.54,0.01896
817.683,0.01733
813.826,0.01646
809.969,0.01607
806.112,0.01638
802.255,0.01698
798.398,0.01855
794.541,0.02839
790.684,0.02886
786.827,0.02081
782.97,0.01448
779.113,0.01086
775.256,0.00854
771.399,0.00655
767.542,0.00460
763.685,0.00285
759.828,0.00173
755.971,0.00100
752.114,0.00058
748.257,0.00000
744.4,0.00083
740.543,0.01402
736.686,0.06147
732.829,0.15476
728.972,0.27363
725.115,0.39439
721.258,0.38183
717.401,0.30300
713.544,0.23233
709.687,0.17604
705.83,0.13322
701.973,0.10365
698.116,0.07769
694.259,0.05861
690.402,0.04671
686.545,0.03903
682.688,0.03396
678.831,0.03026
674.974,0.02475
671.117,0.01949
667.26,0.01527
663.403,0.01170
659.546,0.00833
655.689,0.00510
651.832,0.00168
649.904,0.00000