File: Exploratory-Data-Science/Model Testing of Backsheet Color and FTIR Data/FTIR/DampHeat-FTIR/UL DH 1500hr PET 3.078-2.SPA.dpt
3999.71,0.00194
3995.85,0.00172
3991.99,0.00152
3988.13,0.00130
3984.28,0.00109
3980.42,0.00097
3976.56,0.00082
3972.71,0.00063
3968.85,0.00051
3964.99,0.00055
3961.14,0.00032
3957.28,0.00016
3953.42,0.00008
3949.56,0.00000
3945.71,-0.00011
3941.85,-0.00020
3937.99,-0.00026
3934.14,-0.00027
3930.28,-0.00032
3926.42,-0.00036
3922.57,-0.00035
3918.71,-0.00027
3914.85,-0.00036
3910.99,-0.00025
3907.14,-0.00023
3903.28,-0.00004
3899.42,-0.00003
3895.57,-0.00006
3891.71,-0.00029
3887.85,-0.00027
3884,-0.00020
3880.14,-0.00033
3876.28,-0.00038
3872.42,-0.00035
3868.57,-0.00027
3864.71,-0.00028
3860.85,-0.00021
3857,-0.00023
3853.14,0.00010
3849.28,-0.00019
3845.43,0.00000
3841.57,-0.00008
3837.71,0.00005
3833.85,-0.00021
3830,-0.00034
3826.14,-0.00030
3822.28,-0.00022
3818.43,-0.00017
3814.57,-0.00022
3810.71,-0.00027
3806.86,-0.00010
3803,0.00004
3799.14,-0.00003
3795.28,-0.00003
3791.43,0.00000
3787.57,-0.00013
3783.71,-0.00020
3779.86,-0.00018
3776,-0.00030
3772.14,-0.00022
3768.29,-0.00012
3764.43,-0.00014
3760.57,-0.00004
3756.72,-0.00007
3752.86,-0.00001
3749,0.00003
3745.14,0.00022
3741.29,0.00000
3737.43,-0.00007
3733.57,-0.00009
3729.72,-0.00026
3725.86,-0.00025
3722,-0.00033
3718.15,-0.00049
3714.29,-0.00050
3710.43,-0.00032
3706.57,-0.00047
3702.72,-0.00034
3698.86,-0.00025
3695,-0.00008
3691.15,0.00013
3687.29,0.00023
3683.43,0.00011
3679.58,-0.00015
3675.72,-0.00004
3671.86,-0.00037
3668,-0.00037
3664.15,-0.00033
3660.29,-0.00042
3656.43,-0.00025
3652.58,-0.00018
3648.72,-0.00004
3644.86,-0.00010
3641.01,-0.00011
3637.15,0.00000
3633.29,-0.00000
3629.43,0.00002
3625.58,-0.00012
3621.72,-0.00019
3617.86,-0.00023
3614.01,-0.00025
3610.15,-0.00040
3606.29,-0.00043
3602.44,-0.00048
3598.58,-0.00050
3594.72,-0.00033
3590.86,-0.00021
3587.01,-0.00008
3583.15,-0.00008
3579.29,-0.00008
3575.44,-0.00005
3571.58,-0.00007
3567.72,0.00022
3563.87,0.00015
3560.01,0.00023
3556.15,0.00029
3552.29,0.00034
3548.44,0.00037
3544.58,0.00036
3540.72,0.00037
3536.87,0.00019
3533.01,0.00019
3529.15,0.00014
3525.3,0.00008
3521.44,-0.00010
3517.58,-0.00007
3513.72,-0.00008
3509.87,-0.00017
3506.01,-0.00019
3502.15,-0.00018
3498.3,-0.00010
3494.44,-0.00008
3490.58,-0.00021
3486.73,-0.00004
3482.87,-0.00008
3479.01,-0.00002
3475.15,-0.00020
3471.3,-0.00037
3467.44,-0.00044
3463.58,-0.00045
3459.73,-0.00036
3455.87,-0.00025
3452.01,-0.00018
3448.16,0.00001
3444.3,0.00010
3440.44,0.00051
3436.58,0.00117
3432.73,0.00204
3428.87,0.00223
3425.01,0.00136
3421.16,0.00069
3417.3,0.00012
3413.44,-0.00023
3409.59,-0.00039
3405.73,-0.00044
3401.87,-0.00041
3398.01,-0.00024
3394.16,-0.00002
3390.3,-0.00011
3386.44,-0.00015
3382.59,-0.00007
3378.73,0.00003
3374.87,-0.00006
3371.02,-0.00006
3367.16,-0.00012
3363.3,-0.00015
3359.44,-0.00002
3355.59,0.00009
3351.73,0.00032
3347.87,0.00038
3344.02,0.00079
3340.16,0.00123
3336.3,0.00167
3332.45,0.00229
3328.59,0.00288
3324.73,0.00379
3320.87,0.00488
3317.02,0.00635
3313.16,0.00826
3309.3,0.01080
3305.45,0.01408
3301.59,0.01787
3297.73,0.02208
3293.88,0.02508
3290.02,0.02604
3286.16,0.02523
3282.3,0.02331
3278.45,0.02025
3274.59,0.01662
3270.73,0.01314
3266.88,0.01026
3263.02,0.00774
3259.16,0.00575
3255.31,0.00423
3251.45,0.00314
3247.59,0.00226
3243.73,0.00159
3239.88,0.00108
3236.02,0.00068
3232.16,0.00043
3228.31,0.00022
3224.45,0.00008
3220.59,0.00000
3216.74,-0.00007
3212.88,-0.00006
3209.02,0.00006
3205.16,0.00021
3201.31,0.00020
3197.45,0.00025
3193.59,0.00027
3189.74,0.00026
3185.88,0.00012
3182.02,-0.00001
3178.17,-0.00004
3174.31,0.00002
3170.45,0.00000
3166.59,-0.00001
3162.74,-0.00023
3158.88,-0.00032
3155.02,-0.00044
3151.17,-0.00055
3147.31,-0.00047
3143.45,-0.00047
3139.6,-0.00033
3135.74,-0.00032
3131.88,-0.00019
3128.02,-0.00004
3124.17,0.00001
3120.31,0.00001
3116.45,0.00019
3112.6,0.00055
3108.74,0.00101
3104.88,0.00171
3101.03,0.00203
3097.17,0.00213
3093.31,0.00228
3089.45,0.00255
3085.6,0.00316
3081.74,0.00339
3077.88,0.00334
3074.03,0.00290
3070.17,0.00263
3066.31,0.00231
3062.46,0.00190
3058.6,0.00230
3054.74,0.00272
3050.88,0.00215
3047.03,0.00109
3043.17,0.00033
3039.31,-0.00002
3035.46,0.00000
3031.6,0.00008
3027.74,0.00014
3023.89,0.00026
3020.03,0.00104
3016.17,0.00229
3012.31,0.00236
3008.46,0.00181
3004.6,0.00153
3000.74,0.00153
2996.89,0.00154
2993.03,0.00181
2989.17,0.00249
2985.32,0.00372
2981.46,0.00554
2977.6,0.00835
2973.74,0.01228
2969.89,0.01601
2966.03,0.01677
2962.17,0.01656
2958.32,0.01684
2954.46,0.01697
2950.6,0.01711
2946.75,0.01589
2942.89,0.01491
2939.03,0.01794
2935.17,0.02328
2931.32,0.02861
2927.46,0.03509
2923.6,0.04528
2919.75,0.04877
2915.89,0.04590
2912.03,0.04153
2908.18,0.03158
2904.32,0.02482
2900.46,0.01947
2896.6,0.01556
2892.75,0.01282
2888.89,0.01107
2885.03,0.00975
2881.18,0.00885
2877.32,0.00802
2873.46,0.00801
2869.61,0.00868
2865.75,0.00948
2861.89,0.01205
2858.03,0.01875
2854.18,0.02659
2850.32,0.03249
2846.46,0.02549
2842.61,0.01265
2838.75,0.00602
2834.89,0.00319
2831.04,0.00171
2827.18,0.00076
2823.32,0.00019
2819.46,-0.00010
2815.61,-0.00019
2811.75,-0.00011
2807.89,-0.00006
2804.04,0.00000
2800.18,-0.00007
2796.32,-0.00017
2792.47,-0.00026
2788.61,-0.00035
2784.75,-0.00034
2780.89,-0.00033
2777.04,-0.00032
2773.18,-0.00025
2769.32,-0.00018
2765.47,-0.00015
2761.61,-0.00009
2757.75,-0.00001
2753.9,0.00005
2750.04,0.00009
2746.18,0.00009
2742.32,0.00006
2738.47,-0.00000
2734.61,-0.00013
2730.75,-0.00016
2726.9,-0.00017
2723.04,-0.00018
2719.18,-0.00015
2715.33,-0.00014
2711.47,-0.00011
2707.61,-0.00008
2703.75,-0.00003
2699.9,0.00000
2696.04,-0.00004
2692.18,-0.00014
2688.33,-0.00024
2684.47,-0.00024
2680.61,-0.00030
2676.76,-0.00032
2672.9,-0.00025
2669.04,-0.00019
2665.18,-0.00014
2661.33,-0.00013
2657.47,-0.00009
2653.61,-0.00004
2649.76,-0.00002
2645.9,-0.00001
2642.04,0.00001
2638.19,0.00012
2634.33,0.00026
2630.47,0.00021
2626.61,0.00015
2622.76,0.00003
2618.9,-0.00001
2615.04,0.00003
2611.19,0.00007
2607.33,0.00009
2603.47,0.00000
2599.62,0.00006
2595.76,0.00006
2591.9,0.00011
2588.04,0.00009
2584.19,0.00003
2580.33,0.00002
2576.47,-0.00006
2572.62,-0.00011
2568.76,-0.00009
2564.9,-0.00005
2561.05,-0.00004
2557.19,-0.00003
2553.33,-0.00004
2549.47,0.00007
2545.62,0.00000
2541.76,0.00004
2537.9,0.00010
2534.05,0.00002
2530.19,0.00018
2526.33,0.00009
2522.48,0.00010
2518.62,0.00005
2514.76,0.00005
2510.9,0.00001
2507.05,0.00007
2503.19,0.00023
2499.33,0.00021
2495.48,0.00013
2491.62,0.00010
2487.76,0.00003
2483.91,-0.00003
2480.05,0.00001
2476.19,-0.00005
2472.33,-0.00005
2468.48,0.00003
2464.62,-0.00000
2460.76,-0.00003
2456.91,-0.00001
2453.05,0.00002
2449.19,0.00002
2445.34,0.00001
2441.48,0.00002
2437.62,0.00001
2433.77,0.00000
2429.91,0.00004
2426.05,0.00004
2422.19,0.00020
2418.34,0.00030
2414.48,0.00038
2410.62,0.00053
2406.77,0.00069
2402.91,0.00077
2399.05,0.00101
2395.2,0.00118
2391.34,0.00137
2387.48,0.00151
2383.62,0.00158
2379.77,0.00161
2375.91,0.00161
2372.05,0.00158
2368.2,0.00145
2364.34,0.00125
2360.48,0.00115
2356.63,0.00098
2352.77,0.00096
2348.91,0.00116
2345.05,0.00113
2341.2,0.00109
2337.34,0.00127
2333.48,0.00146
2329.63,0.00148
2325.77,0.00148
2321.91,0.00142
2318.06,0.00136
2314.2,0.00139
2310.34,0.00137
2306.48,0.00158
2302.63,0.00180
2298.77,0.00216
2294.91,0.00238
2291.06,0.00252
2287.2,0.00255
2283.34,0.00254
2279.49,0.00239
2275.63,0.00225
2271.77,0.00222
2267.91,0.00209
2264.06,0.00205
2260.2,0.00191
2256.34,0.00190
2252.49,0.00157
2248.63,0.00134
2244.77,0.00130
2240.92,0.00117
2237.06,0.00102
2233.2,0.00097
2229.34,0.00107
2225.49,0.00109
2221.63,0.00121
2217.77,0.00132
2213.92,0.00126
2210.06,0.00144
2206.2,0.00137
2202.35,0.00138
2198.49,0.00127
2194.63,0.00107
2190.77,0.00141
2186.92,0.00110
2183.06,0.00086
2179.2,0.00107
2175.35,0.00161
2171.49,0.00191
2167.63,0.00190
2163.78,0.00120
2159.92,0.00000
2156.06,0.00181
2152.2,0.00413
2148.35,0.00529
2144.49,0.00643
2140.63,0.00736
2136.78,0.00802
2132.92,0.00916
2129.06,0.01034
2125.21,0.01114
2121.35,0.01180
2117.49,0.01197
2113.63,0.01206
2109.78,0.01183
2105.92,0.01171
2102.06,0.01151
2098.21,0.01129
2094.35,0.01114
2090.49,0.01101
2086.64,0.01068
2082.78,0.01017
2078.92,0.00958
2075.06,0.00912
2071.21,0.00848
2067.35,0.00781
2063.49,0.00738
2059.64,0.00699
2055.78,0.00630
2051.92,0.00506
2048.07,0.00361
2044.21,0.00229
2040.35,0.00136
2036.49,0.00064
2032.64,0.00000
2028.78,-0.00004
2024.92,0.00012
2021.07,0.00000
2017.21,0.00020
2013.35,0.00014
2009.5,0.00008
2005.64,0.00057
2001.78,0.00128
1997.92,0.00163
1994.07,0.00171
1990.21,0.00159
1986.35,0.00146
1982.5,0.00095
1978.64,0.00021
1974.78,0.00014
1970.93,0.00129
1967.07,0.00272
1963.21,0.00445
1959.35,0.00506
1955.5,0.00472
1951.64,0.00412
1947.78,0.00350
1943.93,0.00303
1940.07,0.00235
1936.21,0.00183
1932.36,0.00154
1928.5,0.00122
1924.64,0.00105
1920.78,0.00088
1916.93,0.00069
1913.07,0.00049
1909.21,0.00030
1905.36,0.00018
1901.5,0.00011
1897.64,0.00008
1893.79,0.00000
1889.93,-0.00002
1886.07,-0.00004
1882.21,-0.00009
1878.36,-0.00011
1874.5,-0.00012
1870.64,-0.00008
1866.79,0.00002
1862.93,0.00007
1859.07,0.00000
1855.22,0.00006
1851.36,0.00030
1847.5,0.00064
1843.64,0.00106
1839.79,0.00132
1835.93,0.00158
1832.07,0.00174
1828.22,0.00180
1824.36,0.00168
1820.5,0.00142
1816.65,0.00121
1812.79,0.00110
1808.93,0.00099
1805.07,0.00076
1801.22,0.00050
1797.36,0.00029
1793.5,0.00015
1789.65,0.00007
1785.79,0.00000
1781.93,-0.00007
1778.08,-0.00007
1774.22,0.00010
1770.36,0.00044
1766.5,0.00105
1762.65,0.00205
1758.79,0.00375
1754.93,0.00692
1751.08,0.01312
1747.22,0.02572
1743.36,0.04990
1739.51,0.08650
1735.65,0.13178
1731.79,0.18458
1727.93,0.24087
1724.08,0.29591
1720.22,0.34873
1716.36,0.40166
1712.51,0.43127
1708.65,0.38513
1704.79,0.29937
1700.94,0.21961
1697.08,0.16334
1693.22,0.12634
1689.36,0.10119
1685.51,0.08872
1681.65,0.08061
1677.79,0.06639
1673.94,0.05550
1670.08,0.04709
1666.22,0.03869
1662.37,0.03153
1658.51,0.02740
1654.65,0.02747
1650.79,0.03437
1646.94,0.04801
1643.08,0.04894
1639.22,0.03548
1635.37,0.02264
1631.51,0.01501
1627.65,0.01106
1623.8,0.00869
1619.94,0.00773
1616.08,0.00883
1612.22,0.00854
1608.37,0.00596
1604.51,0.00369
1600.65,0.00189
1596.8,0.00035
1592.94,0.00000
1589.08,0.00055
1585.23,0.00305
1581.37,0.00928
1577.51,0.01295
1573.65,0.00951
1569.8,0.00694
1565.94,0.00697
1562.08,0.00879
1558.23,0.01171
1554.37,0.01347
1550.51,0.01266
1546.66,0.00996
1542.8,0.00695
1538.94,0.00436
1535.08,0.00267
1531.23,0.00204
1527.37,0.00228
1523.51,0.00227
1519.66,0.00153
1515.8,0.00217
1511.94,0.00669
1508.09,0.02614
1504.23,0.03813
1500.37,0.01323
1496.51,0.00227
1492.66,0.00005
1488.8,0.00012
1484.94,0.00161
1481.09,0.00470
1477.23,0.01008
1473.37,0.02268
1469.52,0.02941
1465.66,0.01727
1461.8,0.01447
1457.94,0.01523
1454.09,0.01533
1450.23,0.01361
1446.37,0.01134
1442.52,0.00991
1438.66,0.00897
1434.8,0.00670
1430.95,0.00286
1427.09,0.00010
1423.23,0.00088
1419.37,0.00783
1415.52,0.03104
1411.66,0.07225
1407.8,0.08058
1403.95,0.04926
1400.09,0.02601
1396.23,0.01575
1392.38,0.01310
1388.52,0.01566
1384.66,0.01626
1380.8,0.01177
1376.95,0.00953
1373.09,0.01058
1369.23,0.01109
1365.38,0.00666
1361.52,0.00168
1357.66,0.00000
1353.81,0.00198
1349.95,0.01175
1346.09,0.04348
1342.23,0.10993
1338.38,0.13634
1334.52,0.07222
1330.66,0.01934
1326.81,0.00255
1322.95,0.00000
1319.09,0.00161
1315.24,0.00445
1311.38,0.00826
1307.52,0.01430
1303.66,0.02278
1299.81,0.03464
1295.95,0.04926
1292.09,0.06495
1288.24,0.08136
1284.38,0.09894
1280.52,0.11779
1276.67,0.14011
1272.81,0.16507
1268.95,0.19321
1265.09,0.22122
1261.24,0.24349
1257.38,0.25879
1253.52,0.27918
1249.67,0.30876
1245.81,0.33789
1241.95,0.35722
1238.1,0.35725
1234.24,0.34009
1230.38,0.31805
1226.52,0.29749
1222.67,0.27812
1218.81,0.24943
1214.95,0.21450
1211.1,0.18555
1207.24,0.16019
1203.38,0.13300
1199.53,0.10654
1195.67,0.08180
1191.81,0.06117
1187.95,0.04587
1184.1,0.03588
1180.24,0.03103
1176.38,0.02850
1172.53,0.02071
1168.67,0.00896
1164.81,0.00137
1160.96,0.00000
1157.1,0.00098
1153.24,0.00400
1149.39,0.01006
1145.53,0.02038
1141.67,0.03706
1137.81,0.06460
1133.96,0.10717
1130.1,0.15778
1126.24,0.20269
1122.39,0.23434
1118.53,0.24675
1114.67,0.23901
1110.82,0.24691
1106.96,0.26511
1103.1,0.28756
1099.24,0.30517
1095.39,0.30897
1091.53,0.29961
1087.67,0.28496
1083.82,0.26937
1079.96,0.24924
1076.1,0.22353
1072.25,0.19775
1068.39,0.17473
1064.53,0.15339
1060.67,0.13472
1056.82,0.11988
1052.96,0.10988
1049.1,0.10412
1045.25,0.09902
1041.39,0.09063
1037.53,0.07726
1033.68,0.06035
1029.82,0.04448
1025.96,0.06987
1022.1,0.16112
1018.25,0.20694
1014.39,0.19738
1010.53,0.15034
1006.68,0.11600
1002.82,0.09413
998.962,0.07890
995.105,0.06738
991.248,0.06178
987.391,0.06005
983.534,0.05280
979.677,0.05328
975.82,0.06485
971.963,0.08657
968.106,0.09189
964.249,0.07943
960.392,0.06591
956.535,0.05490
952.678,0.04666
948.821,0.04051
944.964,0.03560
941.107,0.03139
937.25,0.02771
933.393,0.02446
929.536,0.02155
925.679,0.01896
921.822,0.01691
917.965,0.01563
914.108,0.01447
910.251,0.01478
906.394,0.01731
902.537,0.02073
898.68,0.02252
894.823,0.02143
890.966,0.01927
887.109,0.01912
883.252,0.02375
879.395,0.03628
875.538,0.06765
871.681,0.12217
867.824,0.06497
863.967,0.03695
860.11,0.03202
856.253,0.03609
852.396,0.04531
848.539,0.05772
844.682,0.05800
840.825,0.04875
836.968,0.04003
833.111,0.03282
829.254,0.02716
825.397,0.02292
821.54,0.01997
817.683,0.01830
813.826,0.01743
809.969,0.01712
806.112,0.01739
802.255,0.01761
798.398,0.01868
794.541,0.02716
790.684,0.02787
786.827,0.02066
782.97,0.01485
779.113,0.01138
775.256,0.00901
771.399,0.00699
767.542,0.00498
763.685,0.00315
759.828,0.00186
755.971,0.00089
752.114,0.00019
748.257,0.00006
744.4,0.00042
740.543,0.01180
736.686,0.05487
732.829,0.14138
728.972,0.24936
725.115,0.35357
721.258,0.34256
717.401,0.27225
713.544,0.20792
709.687,0.15757
705.83,0.11964
701.973,0.09349
698.116,0.07071
694.259,0.05377
690.402,0.04342
686.545,0.03690
682.688,0.03241
678.831,0.02892
674.974,0.02366
671.117,0.01867
667.26,0.01447
663.403,0.01111
659.546,0.00788
655.689,0.00474
651.832,0.00162
649.904,0.00000