File: Exploratory-Data-Science/Model Testing of Backsheet Color and FTIR Data/FTIR/DampHeat-FTIR/UL DH 0hr PET 3.029-1.SPA.dpt
3999.71,0.00301
3995.85,0.00266
3991.99,0.00227
3988.13,0.00193
3984.28,0.00168
3980.42,0.00153
3976.56,0.00129
3972.71,0.00110
3968.85,0.00087
3964.99,0.00069
3961.14,0.00056
3957.28,0.00046
3953.42,0.00017
3949.56,0.00000
3945.71,0.00004
3941.85,-0.00018
3937.99,-0.00019
3934.14,-0.00021
3930.28,-0.00019
3926.42,-0.00018
3922.57,-0.00018
3918.71,-0.00016
3914.85,-0.00002
3910.99,0.00000
3907.14,0.00003
3903.28,-0.00011
3899.42,0.00000
3895.57,0.00019
3891.71,0.00007
3887.85,0.00009
3884,-0.00013
3880.14,-0.00005
3876.28,0.00020
3872.42,0.00011
3868.57,0.00013
3864.71,0.00024
3860.85,0.00057
3857,0.00054
3853.14,0.00000
3849.28,0.00065
3845.43,0.00065
3841.57,0.00034
3837.71,-0.00010
3833.85,0.00018
3830,0.00005
3826.14,-0.00006
3822.28,-0.00038
3818.43,-0.00028
3814.57,-0.00038
3810.71,-0.00007
3806.86,-0.00033
3803,-0.00026
3799.14,-0.00031
3795.28,-0.00012
3791.43,-0.00014
3787.57,-0.00033
3783.71,-0.00018
3779.86,-0.00029
3776,-0.00013
3772.14,-0.00004
3768.29,-0.00006
3764.43,0.00011
3760.57,0.00026
3756.72,0.00048
3752.86,0.00015
3749,0.00020
3745.14,0.00000
3741.29,0.00041
3737.43,-0.00005
3733.57,-0.00036
3729.72,-0.00049
3725.86,-0.00077
3722,-0.00074
3718.15,-0.00054
3714.29,-0.00052
3710.43,-0.00078
3706.57,-0.00066
3702.72,-0.00074
3698.86,-0.00055
3695,-0.00027
3691.15,0.00005
3687.29,0.00015
3683.43,0.00045
3679.58,0.00013
3675.72,-0.00025
3671.86,-0.00057
3668,-0.00059
3664.15,-0.00037
3660.29,-0.00015
3656.43,-0.00031
3652.58,-0.00027
3648.72,-0.00051
3644.86,-0.00014
3641.01,-0.00008
3637.15,0.00000
3633.29,-0.00027
3629.43,-0.00070
3625.58,-0.00047
3621.72,-0.00053
3617.86,-0.00053
3614.01,-0.00037
3610.15,-0.00055
3606.29,-0.00062
3602.44,-0.00056
3598.58,-0.00054
3594.72,-0.00051
3590.86,-0.00022
3587.01,0.00000
3583.15,0.00026
3579.29,0.00016
3575.44,0.00031
3571.58,0.00032
3567.72,0.00025
3563.87,0.00028
3560.01,0.00035
3556.15,0.00043
3552.29,0.00048
3548.44,0.00046
3544.58,0.00030
3540.72,0.00029
3536.87,0.00010
3533.01,0.00000
3529.15,-0.00025
3525.3,-0.00031
3521.44,-0.00041
3517.58,-0.00058
3513.72,-0.00066
3509.87,-0.00062
3506.01,-0.00069
3502.15,-0.00068
3498.3,-0.00064
3494.44,-0.00047
3490.58,-0.00035
3486.73,-0.00031
3482.87,-0.00012
3479.01,-0.00013
3475.15,-0.00036
3471.3,-0.00047
3467.44,-0.00050
3463.58,-0.00041
3459.73,-0.00018
3455.87,0.00000
3452.01,0.00037
3448.16,0.00082
3444.3,0.00144
3440.44,0.00233
3436.58,0.00382
3432.73,0.00560
3428.87,0.00602
3425.01,0.00425
3421.16,0.00257
3417.3,0.00123
3413.44,0.00044
3409.59,-0.00011
3405.73,-0.00029
3401.87,-0.00023
3398.01,-0.00020
3394.16,0.00004
3390.3,0.00006
3386.44,-0.00011
3382.59,-0.00008
3378.73,-0.00011
3374.87,-0.00029
3371.02,-0.00036
3367.16,-0.00053
3363.3,-0.00053
3359.44,-0.00055
3355.59,-0.00057
3351.73,-0.00038
3347.87,-0.00018
3344.02,-0.00004
3340.16,0.00024
3336.3,0.00029
3332.45,0.00032
3328.59,0.00027
3324.73,0.00000
3320.87,-0.00009
3317.02,-0.00030
3313.16,-0.00043
3309.3,-0.00032
3305.45,-0.00015
3301.59,0.00000
3297.73,0.00004
3293.88,-0.00007
3290.02,-0.00017
3286.16,-0.00020
3282.3,-0.00018
3278.45,-0.00007
3274.59,0.00000
3270.73,-0.00001
3266.88,-0.00023
3263.02,-0.00034
3259.16,-0.00041
3255.31,-0.00042
3251.45,-0.00041
3247.59,-0.00035
3243.73,-0.00036
3239.88,-0.00030
3236.02,-0.00010
3232.16,-0.00007
3228.31,-0.00006
3224.45,0.00005
3220.59,0.00000
3216.74,-0.00017
3212.88,-0.00029
3209.02,-0.00031
3205.16,-0.00036
3201.31,-0.00030
3197.45,-0.00025
3193.59,-0.00012
3189.74,-0.00002
3185.88,-0.00001
3182.02,-0.00011
3178.17,-0.00002
3174.31,-0.00006
3170.45,0.00000
3166.59,-0.00010
3162.74,-0.00041
3158.88,-0.00055
3155.02,-0.00071
3151.17,-0.00079
3147.31,-0.00076
3143.45,-0.00077
3139.6,-0.00062
3135.74,-0.00038
3131.88,-0.00009
3128.02,0.00014
3124.17,0.00011
3120.31,-0.00013
3116.45,0.00002
3112.6,0.00027
3108.74,0.00074
3104.88,0.00119
3101.03,0.00123
3097.17,0.00055
3093.31,0.00007
3089.45,0.00019
3085.6,0.00074
3081.74,0.00135
3077.88,0.00144
3074.03,0.00147
3070.17,0.00184
3066.31,0.00202
3062.46,0.00201
3058.6,0.00282
3054.74,0.00401
3050.88,0.00307
3047.03,0.00120
3043.17,-0.00005
3039.31,-0.00046
3035.46,-0.00032
3031.6,-0.00015
3027.74,0.00000
3023.89,0.00049
3020.03,0.00202
3016.17,0.00433
3012.31,0.00503
3008.46,0.00440
3004.6,0.00420
3000.74,0.00431
2996.89,0.00453
2993.03,0.00507
2989.17,0.00615
2985.32,0.00807
2981.46,0.01108
2977.6,0.01544
2973.74,0.02150
2969.89,0.02605
2966.03,0.02490
2962.17,0.02222
2958.32,0.02005
2954.46,0.01716
2950.6,0.01359
2946.75,0.01039
2942.89,0.00826
2939.03,0.00737
2935.17,0.00774
2931.32,0.00930
2927.46,0.01171
2923.6,0.01521
2919.75,0.01912
2915.89,0.02093
2912.03,0.01892
2908.18,0.01875
2904.32,0.01588
2900.46,0.01093
2896.6,0.00810
2892.75,0.00686
2888.89,0.00621
2885.03,0.00537
2881.18,0.00443
2877.32,0.00393
2873.46,0.00398
2869.61,0.00413
2865.75,0.00456
2861.89,0.00565
2858.03,0.00737
2854.18,0.01004
2850.32,0.01342
2846.46,0.00914
2842.61,0.00375
2838.75,0.00161
2834.89,0.00062
2831.04,0.00015
2827.18,-0.00001
2823.32,0.00000
2819.46,0.00011
2815.61,0.00031
2811.75,0.00043
2807.89,0.00061
2804.04,0.00073
2800.18,0.00058
2796.32,0.00033
2792.47,0.00011
2788.61,-0.00008
2784.75,-0.00020
2780.89,-0.00022
2777.04,-0.00026
2773.18,-0.00024
2769.32,-0.00017
2765.47,-0.00009
2761.61,0.00000
2757.75,0.00011
2753.9,0.00020
2750.04,0.00020
2746.18,0.00028
2742.32,0.00025
2738.47,0.00003
2734.61,-0.00013
2730.75,-0.00026
2726.9,-0.00024
2723.04,-0.00033
2719.18,-0.00026
2715.33,-0.00021
2711.47,-0.00019
2707.61,-0.00014
2703.75,-0.00008
2699.9,0.00000
2696.04,-0.00014
2692.18,-0.00024
2688.33,-0.00037
2684.47,-0.00041
2680.61,-0.00046
2676.76,-0.00046
2672.9,-0.00043
2669.04,-0.00037
2665.18,-0.00029
2661.33,-0.00017
2657.47,-0.00013
2653.61,-0.00007
2649.76,-0.00003
2645.9,-0.00010
2642.04,-0.00005
2638.19,0.00006
2634.33,0.00016
2630.47,0.00016
2626.61,-0.00002
2622.76,-0.00019
2618.9,-0.00022
2615.04,-0.00030
2611.19,-0.00023
2607.33,-0.00015
2603.47,-0.00013
2599.62,-0.00006
2595.76,0.00000
2591.9,0.00003
2588.04,0.00009
2584.19,0.00010
2580.33,0.00001
2576.47,-0.00013
2572.62,-0.00017
2568.76,-0.00024
2564.9,-0.00018
2561.05,-0.00012
2557.19,-0.00013
2553.33,-0.00008
2549.47,-0.00005
2545.62,0.00000
2541.76,0.00013
2537.9,0.00004
2534.05,0.00015
2530.19,0.00019
2526.33,0.00017
2522.48,0.00002
2518.62,-0.00008
2514.76,-0.00018
2510.9,-0.00013
2507.05,-0.00007
2503.19,-0.00003
2499.33,0.00001
2495.48,0.00005
2491.62,0.00006
2487.76,0.00004
2483.91,0.00000
2480.05,0.00000
2476.19,0.00002
2472.33,0.00014
2468.48,0.00020
2464.62,0.00035
2460.76,0.00062
2456.91,0.00084
2453.05,0.00110
2449.19,0.00135
2445.34,0.00172
2441.48,0.00223
2437.62,0.00278
2433.77,0.00343
2429.91,0.00411
2426.05,0.00481
2422.19,0.00563
2418.34,0.00642
2414.48,0.00717
2410.62,0.00803
2406.77,0.00894
2402.91,0.00978
2399.05,0.01075
2395.2,0.01159
2391.34,0.01247
2387.48,0.01324
2383.62,0.01328
2379.77,0.01209
2375.91,0.00903
2372.05,0.00506
2368.2,0.00189
2364.34,0.00012
2360.48,-0.00000
2356.63,0.00069
2352.77,0.00461
2348.91,0.00954
2345.05,0.00402
2341.2,0.00143
2337.34,0.00119
2333.48,0.00129
2329.63,0.00148
2325.77,0.00246
2321.91,0.00307
2318.06,0.00423
2314.2,0.00535
2310.34,0.00636
2306.48,0.00720
2302.63,0.00778
2298.77,0.00805
2294.91,0.00832
2291.06,0.00841
2287.2,0.00831
2283.34,0.00787
2279.49,0.00723
2275.63,0.00665
2271.77,0.00617
2267.91,0.00578
2264.06,0.00544
2260.2,0.00508
2256.34,0.00465
2252.49,0.00413
2248.63,0.00370
2244.77,0.00318
2240.92,0.00280
2237.06,0.00255
2233.2,0.00226
2229.34,0.00202
2225.49,0.00189
2221.63,0.00171
2217.77,0.00146
2213.92,0.00131
2210.06,0.00103
2206.2,0.00091
2202.35,0.00065
2198.49,0.00067
2194.63,0.00041
2190.77,0.00016
2186.92,0.00009
2183.06,0.00000
2179.2,0.00026
2175.35,0.00046
2171.49,0.00097
2167.63,0.00099
2163.78,0.00077
2159.92,0.00000
2156.06,0.00123
2152.2,0.00334
2148.35,0.00468
2144.49,0.00567
2140.63,0.00658
2136.78,0.00722
2132.92,0.00831
2129.06,0.00932
2125.21,0.01019
2121.35,0.01082
2117.49,0.01112
2113.63,0.01127
2109.78,0.01107
2105.92,0.01067
2102.06,0.01049
2098.21,0.01023
2094.35,0.01019
2090.49,0.00989
2086.64,0.00948
2082.78,0.00886
2078.92,0.00820
2075.06,0.00742
2071.21,0.00672
2067.35,0.00631
2063.49,0.00593
2059.64,0.00549
2055.78,0.00488
2051.92,0.00405
2048.07,0.00243
2044.21,0.00139
2040.35,0.00079
2036.49,0.00016
2032.64,0.00000
2028.78,-0.00005
2024.92,-0.00008
2021.07,0.00000
2017.21,0.00009
2013.35,0.00030
2009.5,0.00027
2005.64,0.00043
2001.78,0.00128
1997.92,0.00151
1994.07,0.00160
1990.21,0.00164
1986.35,0.00171
1982.5,0.00146
1978.64,0.00115
1974.78,0.00144
1970.93,0.00280
1967.07,0.00487
1963.21,0.00749
1959.35,0.00814
1955.5,0.00709
1951.64,0.00599
1947.78,0.00488
1943.93,0.00384
1940.07,0.00286
1936.21,0.00204
1932.36,0.00155
1928.5,0.00117
1924.64,0.00078
1920.78,0.00059
1916.93,0.00032
1913.07,0.00018
1909.21,0.00000
1905.36,-0.00007
1901.5,-0.00015
1897.64,-0.00018
1893.79,-0.00026
1889.93,-0.00033
1886.07,-0.00037
1882.21,-0.00042
1878.36,-0.00044
1874.5,-0.00042
1870.64,-0.00034
1866.79,-0.00008
1862.93,0.00011
1859.07,0.00000
1855.22,0.00007
1851.36,0.00033
1847.5,0.00079
1843.64,0.00119
1839.79,0.00175
1835.93,0.00221
1832.07,0.00254
1828.22,0.00268
1824.36,0.00256
1820.5,0.00227
1816.65,0.00205
1812.79,0.00195
1808.93,0.00178
1805.07,0.00144
1801.22,0.00094
1797.36,0.00059
1793.5,0.00023
1789.65,0.00012
1785.79,0.00000
1781.93,-0.00005
1778.08,0.00004
1774.22,0.00027
1770.36,0.00095
1766.5,0.00207
1762.65,0.00377
1758.79,0.00654
1754.93,0.01133
1751.08,0.02019
1747.22,0.03882
1743.36,0.07526
1739.51,0.13147
1735.65,0.20061
1731.79,0.28307
1727.93,0.37592
1724.08,0.47688
1720.22,0.59179
1716.36,0.71399
1712.51,0.74693
1708.65,0.62880
1704.79,0.47104
1700.94,0.33669
1697.08,0.24657
1693.22,0.18996
1689.36,0.15245
1685.51,0.13479
1681.65,0.12340
1677.79,0.10060
1673.94,0.08322
1670.08,0.06970
1666.22,0.05590
1662.37,0.04332
1658.51,0.03446
1654.65,0.02810
1650.79,0.02392
1646.94,0.02106
1643.08,0.01764
1639.22,0.01402
1635.37,0.01121
1631.51,0.00948
1627.65,0.00778
1623.8,0.00626
1619.94,0.00606
1616.08,0.00811
1612.22,0.00848
1608.37,0.00553
1604.51,0.00336
1600.65,0.00172
1596.8,0.00021
1592.94,-0.00008
1589.08,0.00062
1585.23,0.00384
1581.37,0.01249
1577.51,0.01674
1573.65,0.00967
1569.8,0.00322
1565.94,0.00056
1562.08,-0.00045
1558.23,-0.00079
1554.37,-0.00025
1550.51,0.00005
1546.66,-0.00001
1542.8,-0.00033
1538.94,-0.00058
1535.08,-0.00020
1531.23,0.00075
1527.37,0.00227
1523.51,0.00283
1519.66,0.00193
1515.8,0.00298
1511.94,0.00968
1508.09,0.03763
1504.23,0.05597
1500.37,0.01957
1496.51,0.00331
1492.66,0.00014
1488.8,0.00033
1484.94,0.00309
1481.09,0.00823
1477.23,0.01661
1473.37,0.03422
1469.52,0.03713
1465.66,0.02127
1461.8,0.02019
1457.94,0.02244
1454.09,0.02364
1450.23,0.02107
1446.37,0.01741
1442.52,0.01491
1438.66,0.01181
1434.8,0.00699
1430.95,0.00209
1427.09,0.00000
1423.23,0.00202
1419.37,0.01292
1415.52,0.04871
1411.66,0.11388
1407.8,0.12889
1403.95,0.07845
1400.09,0.04103
1396.23,0.02467
1392.38,0.02000
1388.52,0.02279
1384.66,0.02360
1380.8,0.01799
1376.95,0.01548
1373.09,0.01718
1369.23,0.01764
1365.38,0.01031
1361.52,0.00196
1357.66,0.00000
1353.81,0.00405
1349.95,0.01931
1346.09,0.06593
1342.23,0.15894
1338.38,0.18343
1334.52,0.09171
1330.66,0.02340
1326.81,0.00372
1322.95,0.00154
1319.09,0.00419
1315.24,0.00888
1311.38,0.01567
1307.52,0.02532
1303.66,0.03720
1299.81,0.05504
1295.95,0.07914
1292.09,0.10467
1288.24,0.12969
1284.38,0.15634
1280.52,0.18700
1276.67,0.22208
1272.81,0.26217
1268.95,0.30932
1265.09,0.35914
1261.24,0.40019
1257.38,0.42764
1253.52,0.45910
1249.67,0.50162
1245.81,0.53894
1241.95,0.55093
1238.1,0.52167
1234.24,0.46309
1230.38,0.40802
1226.52,0.36963
1222.67,0.33651
1218.81,0.28902
1214.95,0.23857
1211.1,0.19959
1207.24,0.16737
1203.38,0.13522
1199.53,0.10498
1195.67,0.07817
1191.81,0.05612
1187.95,0.04078
1184.1,0.03239
1180.24,0.02975
1176.38,0.02851
1172.53,0.02209
1168.67,0.00895
1164.81,0.00068
1160.96,0.00011
1157.1,0.00267
1153.24,0.00850
1149.39,0.01847
1145.53,0.03408
1141.67,0.05929
1137.81,0.09987
1133.96,0.16145
1130.1,0.23459
1126.24,0.29880
1122.39,0.34099
1118.53,0.35509
1114.67,0.34305
1110.82,0.35265
1106.96,0.38006
1103.1,0.41948
1099.24,0.44929
1095.39,0.45012
1091.53,0.42301
1087.67,0.38564
1083.82,0.34797
1079.96,0.30439
1076.1,0.25660
1072.25,0.21552
1068.39,0.18217
1064.53,0.15461
1060.67,0.13238
1056.82,0.11641
1052.96,0.10821
1049.1,0.10573
1045.25,0.10311
1041.39,0.09471
1037.53,0.07996
1033.68,0.06242
1029.82,0.04886
1025.96,0.08827
1022.1,0.20458
1018.25,0.26254
1014.39,0.22747
1010.53,0.14981
1006.68,0.10523
1002.82,0.08022
998.962,0.06431
995.105,0.05309
991.248,0.04943
987.391,0.04875
983.534,0.04211
979.677,0.04595
975.82,0.06279
971.963,0.08813
968.106,0.08922
964.249,0.07080
960.392,0.05358
956.535,0.04058
952.678,0.03130
948.821,0.02449
944.964,0.01926
941.107,0.01497
937.25,0.01132
933.393,0.00819
929.536,0.00543
925.679,0.00303
921.822,0.00114
917.965,0.00000
914.108,-0.00005
910.251,0.00178
906.394,0.00618
902.537,0.01171
898.68,0.01485
894.823,0.01410
890.966,0.01209
887.109,0.01310
883.252,0.02098
879.395,0.03995
875.538,0.08334
871.681,0.16029
867.824,0.07914
863.967,0.03974
860.11,0.03363
856.253,0.03912
852.396,0.05047
848.539,0.06433
844.682,0.06198
840.825,0.04927
836.968,0.03816
833.111,0.02903
829.254,0.02195
825.397,0.01706
821.54,0.01409
817.683,0.01267
813.826,0.01206
809.969,0.01189
806.112,0.01251
802.255,0.01359
798.398,0.01594
794.541,0.02744
790.684,0.02758
786.827,0.01852
782.97,0.01162
779.113,0.00785
775.256,0.00555
771.399,0.00379
767.542,0.00209
763.685,0.00068
759.828,0.00000
755.971,-0.00024
752.114,0.00006
748.257,-0.00089
744.4,0.00041
740.543,0.01590
736.686,0.06871
732.829,0.17065
728.972,0.30487
725.115,0.45343
721.258,0.43913
717.401,0.34694
713.544,0.26563
709.687,0.19996
705.83,0.15026
701.973,0.11585
698.116,0.08560
694.259,0.06374
690.402,0.05024
686.545,0.04153
682.688,0.03585
678.831,0.03182
674.974,0.02564
671.117,0.01976
667.26,0.01307
663.403,0.01175
659.546,0.00809
655.689,0.00462
651.832,0.00125
649.904,0.00000