File: Exploratory-Data-Science/Model Testing of Backsheet Color and FTIR Data/FTIR/DampHeat-FTIR/UL DH 1500hr PET 3.061-1.SPA.dpt
3999.71,0.00100
3995.85,0.00080
3991.99,0.00071
3988.13,0.00058
3984.28,0.00050
3980.42,0.00050
3976.56,0.00038
3972.71,0.00034
3968.85,0.00034
3964.99,0.00035
3961.14,0.00014
3957.28,0.00012
3953.42,0.00010
3949.56,0.00000
3945.71,-0.00001
3941.85,-0.00008
3937.99,-0.00007
3934.14,-0.00005
3930.28,-0.00014
3926.42,-0.00010
3922.57,-0.00015
3918.71,-0.00012
3914.85,-0.00016
3910.99,-0.00018
3907.14,-0.00010
3903.28,0.00007
3899.42,0.00002
3895.57,-0.00001
3891.71,-0.00016
3887.85,-0.00018
3884,-0.00011
3880.14,-0.00017
3876.28,-0.00017
3872.42,-0.00011
3868.57,-0.00001
3864.71,-0.00003
3860.85,-0.00007
3857,-0.00005
3853.14,0.00032
3849.28,-0.00001
3845.43,0.00006
3841.57,-0.00001
3837.71,0.00020
3833.85,0.00006
3830,-0.00012
3826.14,-0.00008
3822.28,0.00002
3818.43,0.00012
3814.57,0.00008
3810.71,-0.00005
3806.86,0.00003
3803,0.00008
3799.14,0.00006
3795.28,0.00000
3791.43,0.00007
3787.57,-0.00012
3783.71,-0.00020
3779.86,-0.00010
3776,-0.00015
3772.14,-0.00012
3768.29,-0.00014
3764.43,-0.00013
3760.57,-0.00012
3756.72,-0.00025
3752.86,0.00002
3749,0.00007
3745.14,0.00021
3741.29,0.00000
3737.43,0.00008
3733.57,0.00021
3729.72,0.00016
3725.86,0.00018
3722,0.00008
3718.15,-0.00016
3714.29,-0.00020
3710.43,0.00006
3706.57,-0.00002
3702.72,0.00011
3698.86,0.00014
3695,0.00000
3691.15,0.00017
3687.29,0.00006
3683.43,-0.00013
3679.58,-0.00011
3675.72,0.00018
3671.86,-0.00018
3668,-0.00014
3664.15,-0.00021
3660.29,-0.00026
3656.43,-0.00005
3652.58,-0.00001
3648.72,0.00017
3644.86,-0.00003
3641.01,-0.00000
3637.15,0.00005
3633.29,0.00014
3629.43,0.00031
3625.58,0.00010
3621.72,0.00017
3617.86,0.00009
3614.01,0.00000
3610.15,-0.00006
3606.29,-0.00010
3602.44,-0.00005
3598.58,-0.00004
3594.72,-0.00003
3590.86,-0.00004
3587.01,-0.00002
3583.15,-0.00002
3579.29,-0.00002
3575.44,-0.00008
3571.58,-0.00023
3567.72,0.00001
3563.87,-0.00014
3560.01,-0.00003
3556.15,-0.00009
3552.29,-0.00007
3548.44,0.00005
3544.58,0.00004
3540.72,-0.00001
3536.87,-0.00000
3533.01,0.00005
3529.15,0.00011
3525.3,0.00004
3521.44,-0.00010
3517.58,0.00000
3513.72,-0.00001
3509.87,-0.00004
3506.01,0.00004
3502.15,-0.00005
3498.3,0.00001
3494.44,0.00005
3490.58,-0.00004
3486.73,0.00012
3482.87,-0.00000
3479.01,0.00009
3475.15,0.00005
3471.3,-0.00002
3467.44,0.00003
3463.58,-0.00007
3459.73,-0.00003
3455.87,-0.00006
3452.01,-0.00006
3448.16,-0.00008
3444.3,-0.00007
3440.44,0.00000
3436.58,0.00004
3432.73,0.00015
3428.87,0.00019
3425.01,-0.00005
3421.16,-0.00012
3417.3,-0.00018
3413.44,-0.00022
3409.59,-0.00017
3405.73,-0.00010
3401.87,0.00005
3398.01,0.00027
3394.16,0.00040
3390.3,0.00037
3386.44,0.00025
3382.59,0.00005
3378.73,0.00007
3374.87,0.00001
3371.02,-0.00001
3367.16,0.00005
3363.3,0.00007
3359.44,0.00017
3355.59,0.00032
3351.73,0.00055
3347.87,0.00081
3344.02,0.00116
3340.16,0.00159
3336.3,0.00209
3332.45,0.00281
3328.59,0.00359
3324.73,0.00459
3320.87,0.00589
3317.02,0.00746
3313.16,0.00930
3309.3,0.01180
3305.45,0.01502
3301.59,0.01882
3297.73,0.02290
3293.88,0.02585
3290.02,0.02686
3286.16,0.02610
3282.3,0.02429
3278.45,0.02138
3274.59,0.01799
3270.73,0.01468
3266.88,0.01193
3263.02,0.00960
3259.16,0.00761
3255.31,0.00615
3251.45,0.00520
3247.59,0.00427
3243.73,0.00353
3239.88,0.00295
3236.02,0.00245
3232.16,0.00219
3228.31,0.00189
3224.45,0.00172
3220.59,0.00149
3216.74,0.00150
3212.88,0.00151
3209.02,0.00151
3205.16,0.00157
3201.31,0.00135
3197.45,0.00134
3193.59,0.00116
3189.74,0.00103
3185.88,0.00078
3182.02,0.00057
3178.17,0.00037
3174.31,0.00031
3170.45,0.00011
3166.59,0.00003
3162.74,0.00003
3158.88,-0.00006
3155.02,-0.00004
3151.17,-0.00000
3147.31,0.00000
3143.45,0.00009
3139.6,0.00012
3135.74,0.00009
3131.88,0.00017
3128.02,0.00024
3124.17,0.00032
3120.31,0.00038
3116.45,0.00059
3112.6,0.00086
3108.74,0.00100
3104.88,0.00136
3101.03,0.00165
3097.17,0.00196
3093.31,0.00232
3089.45,0.00254
3085.6,0.00284
3081.74,0.00282
3077.88,0.00262
3074.03,0.00217
3070.17,0.00174
3066.31,0.00140
3062.46,0.00102
3058.6,0.00089
3054.74,0.00068
3050.88,0.00053
3047.03,0.00035
3043.17,0.00017
3039.31,0.00009
3035.46,-0.00003
3031.6,0.00005
3027.74,0.00002
3023.89,0.00004
3020.03,0.00016
3016.17,0.00038
3012.31,0.00032
3008.46,0.00015
3004.6,0.00008
3000.74,0.00009
2996.89,0.00000
2993.03,0.00010
2989.17,0.00042
2985.32,0.00079
2981.46,0.00139
2977.6,0.00232
2973.74,0.00354
2969.89,0.00507
2966.03,0.00650
2962.17,0.00784
2958.32,0.00931
2954.46,0.01069
2950.6,0.01220
2946.75,0.01239
2942.89,0.01253
2939.03,0.01568
2935.17,0.02073
2931.32,0.02560
2927.46,0.03126
2923.6,0.04000
2919.75,0.04298
2915.89,0.03941
2912.03,0.03334
2908.18,0.02273
2904.32,0.01740
2900.46,0.01470
2896.6,0.01226
2892.75,0.01014
2888.89,0.00854
2885.03,0.00753
2881.18,0.00705
2877.32,0.00660
2873.46,0.00668
2869.61,0.00725
2865.75,0.00799
2861.89,0.01022
2858.03,0.01619
2854.18,0.02329
2850.32,0.02911
2846.46,0.02342
2842.61,0.01190
2838.75,0.00611
2834.89,0.00373
2831.04,0.00252
2827.18,0.00174
2823.32,0.00124
2819.46,0.00087
2815.61,0.00056
2811.75,0.00043
2807.89,0.00030
2804.04,0.00019
2800.18,0.00013
2796.32,0.00001
2792.47,0.00005
2788.61,-0.00005
2784.75,-0.00004
2780.89,-0.00006
2777.04,-0.00006
2773.18,-0.00008
2769.32,-0.00006
2765.47,-0.00005
2761.61,0.00000
2757.75,-0.00000
2753.9,0.00002
2750.04,0.00000
2746.18,-0.00004
2742.32,-0.00003
2738.47,-0.00001
2734.61,-0.00004
2730.75,-0.00006
2726.9,-0.00003
2723.04,-0.00003
2719.18,-0.00004
2715.33,-0.00002
2711.47,-0.00005
2707.61,-0.00000
2703.75,0.00000
2699.9,0.00001
2696.04,0.00002
2692.18,0.00004
2688.33,-0.00001
2684.47,-0.00003
2680.61,-0.00005
2676.76,-0.00003
2672.9,-0.00002
2669.04,0.00003
2665.18,0.00002
2661.33,0.00003
2657.47,0.00007
2653.61,0.00010
2649.76,0.00010
2645.9,0.00009
2642.04,0.00006
2638.19,0.00008
2634.33,0.00013
2630.47,0.00011
2626.61,0.00011
2622.76,0.00002
2618.9,0.00003
2615.04,0.00006
2611.19,0.00016
2607.33,0.00011
2603.47,0.00009
2599.62,0.00009
2595.76,0.00000
2591.9,0.00002
2588.04,0.00006
2584.19,-0.00005
2580.33,0.00003
2576.47,0.00002
2572.62,0.00003
2568.76,-0.00003
2564.9,-0.00000
2561.05,0.00009
2557.19,0.00005
2553.33,0.00006
2549.47,0.00009
2545.62,0.00000
2541.76,0.00008
2537.9,0.00001
2534.05,-0.00002
2530.19,0.00015
2526.33,0.00009
2522.48,0.00005
2518.62,0.00001
2514.76,0.00002
2510.9,0.00001
2507.05,0.00004
2503.19,0.00011
2499.33,0.00004
2495.48,0.00001
2491.62,0.00009
2487.76,0.00005
2483.91,-0.00001
2480.05,0.00012
2476.19,-0.00003
2472.33,-0.00002
2468.48,0.00008
2464.62,0.00002
2460.76,-0.00000
2456.91,-0.00000
2453.05,0.00001
2449.19,0.00010
2445.34,0.00001
2441.48,0.00009
2437.62,0.00008
2433.77,0.00003
2429.91,0.00000
2426.05,0.00000
2422.19,0.00011
2418.34,0.00016
2414.48,0.00021
2410.62,0.00024
2406.77,0.00024
2402.91,0.00019
2399.05,0.00029
2395.2,0.00035
2391.34,0.00049
2387.48,0.00066
2383.62,0.00095
2379.77,0.00187
2375.91,0.00374
2372.05,0.00593
2368.2,0.00775
2364.34,0.00875
2360.48,0.00909
2356.63,0.00838
2352.77,0.00624
2348.91,0.00375
2345.05,0.00613
2341.2,0.00711
2337.34,0.00707
2333.48,0.00696
2329.63,0.00672
2325.77,0.00603
2321.91,0.00544
2318.06,0.00443
2314.2,0.00363
2310.34,0.00299
2306.48,0.00257
2302.63,0.00237
2298.77,0.00228
2294.91,0.00218
2291.06,0.00210
2287.2,0.00199
2283.34,0.00211
2279.49,0.00202
2275.63,0.00208
2271.77,0.00209
2267.91,0.00203
2264.06,0.00204
2260.2,0.00204
2256.34,0.00209
2252.49,0.00193
2248.63,0.00189
2244.77,0.00193
2240.92,0.00177
2237.06,0.00171
2233.2,0.00164
2229.34,0.00164
2225.49,0.00154
2221.63,0.00165
2217.77,0.00167
2213.92,0.00164
2210.06,0.00174
2206.2,0.00172
2202.35,0.00157
2198.49,0.00149
2194.63,0.00140
2190.77,0.00162
2186.92,0.00116
2183.06,0.00093
2179.2,0.00077
2175.35,0.00119
2171.49,0.00112
2167.63,0.00090
2163.78,0.00049
2159.92,0.00000
2156.06,0.00050
2152.2,0.00146
2148.35,0.00176
2144.49,0.00223
2140.63,0.00263
2136.78,0.00263
2132.92,0.00312
2129.06,0.00358
2125.21,0.00379
2121.35,0.00405
2117.49,0.00403
2113.63,0.00406
2109.78,0.00395
2105.92,0.00395
2102.06,0.00389
2098.21,0.00391
2094.35,0.00384
2090.49,0.00374
2086.64,0.00374
2082.78,0.00358
2078.92,0.00343
2075.06,0.00347
2071.21,0.00314
2067.35,0.00279
2063.49,0.00286
2059.64,0.00265
2055.78,0.00261
2051.92,0.00197
2048.07,0.00154
2044.21,0.00103
2040.35,0.00055
2036.49,0.00032
2032.64,0.00008
2028.78,0.00003
2024.92,-0.00001
2021.07,0.00001
2017.21,0.00024
2013.35,0.00016
2009.5,0.00005
2005.64,0.00024
2001.78,0.00063
1997.92,0.00071
1994.07,0.00065
1990.21,0.00062
1986.35,0.00069
1982.5,0.00030
1978.64,0.00007
1974.78,-0.00011
1970.93,0.00009
1967.07,0.00053
1963.21,0.00084
1959.35,0.00113
1955.5,0.00120
1951.64,0.00115
1947.78,0.00104
1943.93,0.00094
1940.07,0.00073
1936.21,0.00060
1932.36,0.00055
1928.5,0.00049
1924.64,0.00039
1920.78,0.00033
1916.93,0.00029
1913.07,0.00024
1909.21,0.00017
1905.36,0.00012
1901.5,0.00010
1897.64,0.00009
1893.79,0.00006
1889.93,0.00002
1886.07,0.00000
1882.21,-0.00001
1878.36,-0.00001
1874.5,-0.00000
1870.64,0.00004
1866.79,0.00002
1862.93,0.00006
1859.07,0.00000
1855.22,0.00001
1851.36,0.00008
1847.5,0.00014
1843.64,0.00027
1839.79,0.00028
1835.93,0.00028
1832.07,0.00031
1828.22,0.00035
1824.36,0.00039
1820.5,0.00032
1816.65,0.00026
1812.79,0.00023
1808.93,0.00022
1805.07,0.00019
1801.22,0.00016
1797.36,0.00015
1793.5,0.00012
1789.65,0.00010
1785.79,0.00006
1781.93,0.00003
1778.08,0.00001
1774.22,0.00000
1770.36,-0.00002
1766.5,-0.00002
1762.65,0.00018
1758.79,0.00059
1754.93,0.00149
1751.08,0.00338
1747.22,0.00682
1743.36,0.01257
1739.51,0.02023
1735.65,0.02852
1731.79,0.03702
1727.93,0.04451
1724.08,0.05038
1720.22,0.05579
1716.36,0.06420
1712.51,0.07396
1708.65,0.07331
1704.79,0.06501
1700.94,0.05485
1697.08,0.04538
1693.22,0.03779
1689.36,0.03176
1685.51,0.02806
1681.65,0.02591
1677.79,0.02296
1673.94,0.02043
1670.08,0.01853
1666.22,0.01668
1662.37,0.01526
1658.51,0.01504
1654.65,0.01745
1650.79,0.02556
1646.94,0.03960
1643.08,0.04165
1639.22,0.03028
1635.37,0.01957
1631.51,0.01347
1627.65,0.01064
1623.8,0.00902
1619.94,0.00818
1616.08,0.00833
1612.22,0.00811
1608.37,0.00710
1604.51,0.00590
1600.65,0.00480
1596.8,0.00395
1592.94,0.00365
1589.08,0.00376
1585.23,0.00442
1581.37,0.00627
1577.51,0.00808
1573.65,0.00841
1569.8,0.00907
1565.94,0.01048
1562.08,0.01266
1558.23,0.01541
1554.37,0.01678
1550.51,0.01583
1546.66,0.01331
1542.8,0.01053
1538.94,0.00794
1535.08,0.00582
1531.23,0.00438
1527.37,0.00344
1523.51,0.00273
1519.66,0.00200
1515.8,0.00174
1511.94,0.00251
1508.09,0.00662
1504.23,0.00947
1500.37,0.00366
1496.51,0.00075
1492.66,0.00002
1488.8,0.00000
1484.94,0.00039
1481.09,0.00128
1477.23,0.00282
1473.37,0.00690
1469.52,0.01222
1465.66,0.00795
1461.8,0.00617
1457.94,0.00629
1454.09,0.00601
1450.23,0.00557
1446.37,0.00515
1442.52,0.00513
1438.66,0.00564
1434.8,0.00555
1430.95,0.00406
1427.09,0.00258
1423.23,0.00257
1419.37,0.00421
1415.52,0.00914
1411.66,0.01815
1407.8,0.02086
1403.95,0.01449
1400.09,0.00917
1396.23,0.00669
1392.38,0.00598
1388.52,0.00667
1384.66,0.00698
1380.8,0.00592
1376.95,0.00533
1373.09,0.00548
1369.23,0.00537
1365.38,0.00407
1361.52,0.00268
1357.66,0.00157
1353.81,0.00109
1349.95,0.00261
1346.09,0.00936
1342.23,0.02401
1338.38,0.03146
1334.52,0.01852
1330.66,0.00558
1326.81,0.00078
1322.95,0.00000
1319.09,0.00037
1315.24,0.00087
1311.38,0.00140
1307.52,0.00275
1303.66,0.00511
1299.81,0.00785
1295.95,0.01080
1292.09,0.01437
1288.24,0.01851
1284.38,0.02247
1280.52,0.02547
1276.67,0.02977
1272.81,0.03490
1268.95,0.04091
1265.09,0.04660
1261.24,0.05102
1257.38,0.05385
1253.52,0.05844
1249.67,0.06607
1245.81,0.07522
1241.95,0.08457
1238.1,0.09123
1234.24,0.09403
1230.38,0.09279
1226.52,0.08864
1222.67,0.08429
1218.81,0.07861
1214.95,0.07091
1211.1,0.06404
1207.24,0.05806
1203.38,0.05136
1199.53,0.04416
1195.67,0.03642
1191.81,0.02905
1187.95,0.02280
1184.1,0.01805
1180.24,0.01535
1176.38,0.01383
1172.53,0.00995
1168.67,0.00510
1164.81,0.00156
1160.96,0.00031
1157.1,0.00000
1153.24,0.00015
1149.39,0.00139
1145.53,0.00407
1141.67,0.00806
1137.81,0.01478
1133.96,0.02548
1130.1,0.03766
1126.24,0.04871
1122.39,0.05770
1118.53,0.06231
1114.67,0.06087
1110.82,0.06360
1106.96,0.06869
1103.1,0.07480
1099.24,0.08119
1095.39,0.08542
1091.53,0.08745
1087.67,0.08826
1083.82,0.08864
1079.96,0.08768
1076.1,0.08396
1072.25,0.07839
1068.39,0.07278
1064.53,0.06675
1060.67,0.06089
1056.82,0.05561
1052.96,0.05123
1049.1,0.04811
1045.25,0.04540
1041.39,0.04199
1037.53,0.03703
1033.68,0.02980
1029.82,0.02059
1025.96,0.02320
1022.1,0.05182
1018.25,0.06922
1014.39,0.07605
1010.53,0.06737
1006.68,0.05738
1002.82,0.04993
998.962,0.04408
995.105,0.03914
991.248,0.03555
987.391,0.03399
983.534,0.03054
979.677,0.02850
975.82,0.03005
971.963,0.03715
968.106,0.04194
964.249,0.04033
960.392,0.03703
956.535,0.03373
952.678,0.03088
948.821,0.02859
944.964,0.02655
941.107,0.02474
937.25,0.02302
933.393,0.02140
929.536,0.01987
925.679,0.01847
921.822,0.01737
917.965,0.01652
914.108,0.01522
910.251,0.01448
906.394,0.01463
902.537,0.01517
898.68,0.01547
894.823,0.01491
890.966,0.01376
887.109,0.01296
883.252,0.01352
879.395,0.01671
875.538,0.02593
871.681,0.04213
867.824,0.02778
863.967,0.01905
860.11,0.01676
856.253,0.01766
852.396,0.02080
848.539,0.02626
844.682,0.02848
840.825,0.02641
836.968,0.02373
833.111,0.02127
829.254,0.01909
825.397,0.01731
821.54,0.01583
817.683,0.01479
813.826,0.01406
809.969,0.01357
806.112,0.01335
802.255,0.01307
798.398,0.01299
794.541,0.01599
790.684,0.01724
786.827,0.01471
782.97,0.01221
779.113,0.01046
775.256,0.00902
771.399,0.00769
767.542,0.00636
763.685,0.00505
759.828,0.00394
755.971,0.00283
752.114,0.00170
748.257,0.00061
744.4,0.00000
740.543,0.00374
736.686,0.02251
732.829,0.06078
728.972,0.09886
725.115,0.12424
721.258,0.11863
717.401,0.09427
713.544,0.07385
709.687,0.05904
705.83,0.04760
701.973,0.03913
698.116,0.03147
694.259,0.02503
690.402,0.02077
686.545,0.01794
682.688,0.01582
678.831,0.01408
674.974,0.01169
671.117,0.00948
667.26,0.00838
663.403,0.00550
659.546,0.00399
655.689,0.00251
651.832,0.00078
649.904,0.00000