File: Exploratory-Data-Science/Model Testing of Backsheet Color and FTIR Data/FTIR/DampHeat-FTIR/UL DH 0hr PET 3.030-1.SPA.dpt
3999.71,0.00243
3995.85,0.00225
3991.99,0.00193
3988.13,0.00167
3984.28,0.00138
3980.42,0.00124
3976.56,0.00106
3972.71,0.00094
3968.85,0.00073
3964.99,0.00063
3961.14,0.00040
3957.28,0.00029
3953.42,0.00011
3949.56,0.00000
3945.71,0.00000
3941.85,-0.00013
3937.99,-0.00019
3934.14,-0.00020
3930.28,-0.00022
3926.42,-0.00016
3922.57,-0.00019
3918.71,-0.00017
3914.85,-0.00003
3910.99,-0.00002
3907.14,0.00001
3903.28,0.00000
3899.42,0.00000
3895.57,0.00009
3891.71,-0.00008
3887.85,-0.00003
3884,-0.00011
3880.14,-0.00012
3876.28,0.00010
3872.42,0.00005
3868.57,-0.00003
3864.71,0.00004
3860.85,0.00030
3857,0.00024
3853.14,-0.00012
3849.28,0.00037
3845.43,0.00041
3841.57,0.00015
3837.71,-0.00014
3833.85,0.00006
3830,-0.00006
3826.14,-0.00018
3822.28,-0.00035
3818.43,-0.00021
3814.57,-0.00036
3810.71,0.00002
3806.86,-0.00025
3803,-0.00010
3799.14,-0.00012
3795.28,0.00000
3791.43,0.00001
3787.57,-0.00008
3783.71,-0.00000
3779.86,-0.00009
3776,0.00012
3772.14,0.00006
3768.29,0.00012
3764.43,0.00023
3760.57,0.00029
3756.72,0.00048
3752.86,0.00021
3749,0.00014
3745.14,0.00000
3741.29,0.00033
3737.43,-0.00016
3733.57,-0.00054
3729.72,-0.00058
3725.86,-0.00078
3722,-0.00052
3718.15,-0.00016
3714.29,-0.00006
3710.43,-0.00047
3706.57,-0.00030
3702.72,-0.00033
3698.86,-0.00018
3695,0.00009
3691.15,0.00031
3687.29,0.00039
3683.43,0.00074
3679.58,0.00053
3675.72,0.00022
3671.86,0.00011
3668,-0.00002
3664.15,0.00020
3660.29,0.00028
3656.43,0.00013
3652.58,0.00020
3648.72,0.00008
3644.86,0.00034
3641.01,0.00031
3637.15,0.00022
3633.29,0.00001
3629.43,-0.00031
3625.58,-0.00024
3621.72,-0.00027
3617.86,-0.00011
3614.01,0.00024
3610.15,0.00014
3606.29,-0.00001
3602.44,-0.00011
3598.58,0.00005
3594.72,0.00000
3590.86,0.00023
3587.01,0.00041
3583.15,0.00050
3579.29,0.00043
3575.44,0.00061
3571.58,0.00060
3567.72,0.00046
3563.87,0.00058
3560.01,0.00064
3556.15,0.00069
3552.29,0.00075
3548.44,0.00062
3544.58,0.00048
3540.72,0.00050
3536.87,0.00036
3533.01,0.00024
3529.15,0.00005
3525.3,-0.00008
3521.44,-0.00004
3517.58,-0.00024
3513.72,-0.00036
3509.87,-0.00019
3506.01,-0.00030
3502.15,-0.00028
3498.3,-0.00022
3494.44,-0.00009
3490.58,-0.00007
3486.73,0.00002
3482.87,0.00002
3479.01,0.00005
3475.15,-0.00020
3471.3,-0.00034
3467.44,-0.00043
3463.58,-0.00031
3459.73,-0.00013
3455.87,0.00000
3452.01,0.00021
3448.16,0.00047
3444.3,0.00101
3440.44,0.00166
3436.58,0.00273
3432.73,0.00400
3428.87,0.00431
3425.01,0.00311
3421.16,0.00189
3417.3,0.00091
3413.44,0.00037
3409.59,0.00003
3405.73,-0.00016
3401.87,-0.00014
3398.01,-0.00003
3394.16,0.00001
3390.3,0.00011
3386.44,-0.00001
3382.59,-0.00004
3378.73,0.00000
3374.87,-0.00025
3371.02,-0.00033
3367.16,-0.00047
3363.3,-0.00048
3359.44,-0.00055
3355.59,-0.00057
3351.73,-0.00033
3347.87,-0.00014
3344.02,0.00006
3340.16,0.00019
3336.3,0.00024
3332.45,0.00031
3328.59,0.00023
3324.73,0.00000
3320.87,-0.00010
3317.02,-0.00024
3313.16,-0.00026
3309.3,-0.00033
3305.45,-0.00021
3301.59,-0.00002
3297.73,0.00004
3293.88,-0.00006
3290.02,-0.00011
3286.16,-0.00013
3282.3,-0.00014
3278.45,-0.00003
3274.59,0.00000
3270.73,-0.00011
3266.88,-0.00025
3263.02,-0.00033
3259.16,-0.00039
3255.31,-0.00045
3251.45,-0.00042
3247.59,-0.00033
3243.73,-0.00037
3239.88,-0.00024
3236.02,-0.00009
3232.16,-0.00010
3228.31,-0.00017
3224.45,-0.00002
3220.59,0.00000
3216.74,-0.00012
3212.88,-0.00025
3209.02,-0.00025
3205.16,-0.00034
3201.31,-0.00035
3197.45,-0.00027
3193.59,-0.00014
3189.74,-0.00015
3185.88,-0.00003
3182.02,-0.00010
3178.17,-0.00013
3174.31,-0.00006
3170.45,0.00000
3166.59,-0.00017
3162.74,-0.00040
3158.88,-0.00060
3155.02,-0.00073
3151.17,-0.00081
3147.31,-0.00073
3143.45,-0.00068
3139.6,-0.00054
3135.74,-0.00039
3131.88,-0.00016
3128.02,-0.00003
3124.17,0.00000
3120.31,-0.00013
3116.45,0.00000
3112.6,0.00019
3108.74,0.00055
3104.88,0.00087
3101.03,0.00094
3097.17,0.00048
3093.31,0.00000
3089.45,0.00020
3085.6,0.00055
3081.74,0.00114
3077.88,0.00110
3074.03,0.00118
3070.17,0.00147
3066.31,0.00162
3062.46,0.00167
3058.6,0.00236
3054.74,0.00339
3050.88,0.00264
3047.03,0.00114
3043.17,0.00010
3039.31,-0.00022
3035.46,-0.00021
3031.6,-0.00009
3027.74,0.00000
3023.89,0.00035
3020.03,0.00150
3016.17,0.00332
3012.31,0.00387
3008.46,0.00333
3004.6,0.00310
3000.74,0.00317
2996.89,0.00325
2993.03,0.00371
2989.17,0.00459
2985.32,0.00609
2981.46,0.00844
2977.6,0.01189
2973.74,0.01678
2969.89,0.02053
2966.03,0.01974
2962.17,0.01753
2958.32,0.01582
2954.46,0.01366
2950.6,0.01086
2946.75,0.00841
2942.89,0.00666
2939.03,0.00589
2935.17,0.00616
2931.32,0.00738
2927.46,0.00936
2923.6,0.01228
2919.75,0.01544
2915.89,0.01699
2912.03,0.01561
2908.18,0.01564
2904.32,0.01347
2900.46,0.00931
2896.6,0.00692
2892.75,0.00586
2888.89,0.00531
2885.03,0.00459
2881.18,0.00381
2877.32,0.00338
2873.46,0.00339
2869.61,0.00349
2865.75,0.00388
2861.89,0.00477
2858.03,0.00619
2854.18,0.00838
2850.32,0.01119
2846.46,0.00779
2842.61,0.00336
2838.75,0.00158
2834.89,0.00067
2831.04,0.00024
2827.18,0.00008
2823.32,0.00000
2819.46,0.00009
2815.61,0.00019
2811.75,0.00031
2807.89,0.00044
2804.04,0.00057
2800.18,0.00050
2796.32,0.00031
2792.47,0.00010
2788.61,-0.00007
2784.75,-0.00013
2780.89,-0.00016
2777.04,-0.00020
2773.18,-0.00016
2769.32,-0.00008
2765.47,-0.00004
2761.61,0.00002
2757.75,0.00007
2753.9,0.00013
2750.04,0.00011
2746.18,0.00019
2742.32,0.00017
2738.47,0.00002
2734.61,-0.00010
2730.75,-0.00021
2726.9,-0.00024
2723.04,-0.00026
2719.18,-0.00022
2715.33,-0.00020
2711.47,-0.00016
2707.61,-0.00012
2703.75,-0.00007
2699.9,0.00000
2696.04,-0.00013
2692.18,-0.00020
2688.33,-0.00032
2684.47,-0.00033
2680.61,-0.00036
2676.76,-0.00036
2672.9,-0.00028
2669.04,-0.00022
2665.18,-0.00013
2661.33,-0.00006
2657.47,0.00001
2653.61,0.00005
2649.76,0.00000
2645.9,-0.00003
2642.04,0.00005
2638.19,0.00019
2634.33,0.00026
2630.47,0.00025
2626.61,0.00011
2622.76,-0.00005
2618.9,-0.00008
2615.04,-0.00019
2611.19,-0.00013
2607.33,-0.00012
2603.47,-0.00008
2599.62,-0.00002
2595.76,0.00000
2591.9,0.00004
2588.04,0.00002
2584.19,0.00001
2580.33,0.00004
2576.47,-0.00006
2572.62,-0.00006
2568.76,-0.00014
2564.9,-0.00005
2561.05,-0.00008
2557.19,-0.00005
2553.33,-0.00003
2549.47,0.00000
2545.62,0.00010
2541.76,0.00031
2537.9,0.00040
2534.05,0.00051
2530.19,0.00063
2526.33,0.00070
2522.48,0.00065
2518.62,0.00070
2514.76,0.00072
2510.9,0.00093
2507.05,0.00115
2503.19,0.00137
2499.33,0.00160
2495.48,0.00174
2491.62,0.00199
2487.76,0.00204
2483.91,0.00215
2480.05,0.00239
2476.19,0.00260
2472.33,0.00294
2468.48,0.00326
2464.62,0.00354
2460.76,0.00406
2456.91,0.00438
2453.05,0.00481
2449.19,0.00527
2445.34,0.00577
2441.48,0.00642
2437.62,0.00708
2433.77,0.00781
2429.91,0.00862
2426.05,0.00945
2422.19,0.01028
2418.34,0.01119
2414.48,0.01210
2410.62,0.01310
2406.77,0.01412
2402.91,0.01512
2399.05,0.01625
2395.2,0.01719
2391.34,0.01819
2387.48,0.01913
2383.62,0.01922
2379.77,0.01737
2375.91,0.01291
2372.05,0.00726
2368.2,0.00264
2364.34,0.00004
2360.48,0.00000
2356.63,0.00139
2352.77,0.00743
2348.91,0.01477
2345.05,0.00716
2341.2,0.00361
2337.34,0.00339
2333.48,0.00361
2329.63,0.00416
2325.77,0.00585
2321.91,0.00694
2318.06,0.00884
2314.2,0.01051
2310.34,0.01201
2306.48,0.01327
2302.63,0.01404
2298.77,0.01436
2294.91,0.01456
2291.06,0.01456
2287.2,0.01445
2283.34,0.01396
2279.49,0.01322
2275.63,0.01238
2271.77,0.01175
2267.91,0.01134
2264.06,0.01081
2260.2,0.01051
2256.34,0.00980
2252.49,0.00921
2248.63,0.00872
2244.77,0.00809
2240.92,0.00747
2237.06,0.00711
2233.2,0.00665
2229.34,0.00641
2225.49,0.00602
2221.63,0.00562
2217.77,0.00529
2213.92,0.00486
2210.06,0.00459
2206.2,0.00410
2202.35,0.00381
2198.49,0.00361
2194.63,0.00311
2190.77,0.00261
2186.92,0.00214
2183.06,0.00191
2179.2,0.00211
2175.35,0.00230
2171.49,0.00256
2167.63,0.00229
2163.78,0.00145
2159.92,0.00000
2156.06,0.00138
2152.2,0.00405
2148.35,0.00561
2144.49,0.00676
2140.63,0.00784
2136.78,0.00851
2132.92,0.00955
2129.06,0.01082
2125.21,0.01181
2121.35,0.01245
2117.49,0.01267
2113.63,0.01269
2109.78,0.01248
2105.92,0.01202
2102.06,0.01185
2098.21,0.01144
2094.35,0.01149
2090.49,0.01132
2086.64,0.01084
2082.78,0.01025
2078.92,0.00959
2075.06,0.00869
2071.21,0.00800
2067.35,0.00750
2063.49,0.00708
2059.64,0.00673
2055.78,0.00609
2051.92,0.00523
2048.07,0.00332
2044.21,0.00207
2040.35,0.00130
2036.49,0.00056
2032.64,0.00005
2028.78,0.00000
2024.92,-0.00005
2021.07,0.00020
2017.21,0.00048
2013.35,0.00045
2009.5,0.00049
2005.64,0.00075
2001.78,0.00164
1997.92,0.00200
1994.07,0.00223
1990.21,0.00229
1986.35,0.00199
1982.5,0.00154
1978.64,0.00082
1974.78,0.00095
1970.93,0.00216
1967.07,0.00377
1963.21,0.00632
1959.35,0.00688
1955.5,0.00621
1951.64,0.00525
1947.78,0.00429
1943.93,0.00333
1940.07,0.00257
1936.21,0.00185
1932.36,0.00145
1928.5,0.00116
1924.64,0.00090
1920.78,0.00064
1916.93,0.00038
1913.07,0.00024
1909.21,0.00000
1905.36,-0.00007
1901.5,-0.00013
1897.64,-0.00018
1893.79,-0.00020
1889.93,-0.00027
1886.07,-0.00022
1882.21,-0.00033
1878.36,-0.00035
1874.5,-0.00038
1870.64,-0.00032
1866.79,-0.00024
1862.93,0.00000
1859.07,-0.00009
1855.22,-0.00007
1851.36,0.00017
1847.5,0.00062
1843.64,0.00096
1839.79,0.00147
1835.93,0.00185
1832.07,0.00209
1828.22,0.00214
1824.36,0.00198
1820.5,0.00173
1816.65,0.00152
1812.79,0.00146
1808.93,0.00135
1805.07,0.00103
1801.22,0.00059
1797.36,0.00029
1793.5,0.00000
1789.65,-0.00010
1785.79,-0.00021
1781.93,-0.00021
1778.08,-0.00010
1774.22,0.00015
1770.36,0.00074
1766.5,0.00174
1762.65,0.00316
1758.79,0.00557
1754.93,0.00962
1751.08,0.01714
1747.22,0.03288
1743.36,0.06387
1739.51,0.11204
1735.65,0.17179
1731.79,0.24295
1727.93,0.32151
1724.08,0.40332
1720.22,0.48945
1716.36,0.57466
1712.51,0.60365
1708.65,0.51780
1704.79,0.38895
1700.94,0.27815
1697.08,0.20419
1693.22,0.15755
1689.36,0.12649
1685.51,0.11141
1681.65,0.10167
1677.79,0.08305
1673.94,0.06869
1670.08,0.05756
1666.22,0.04629
1662.37,0.03601
1658.51,0.02873
1654.65,0.02343
1650.79,0.01991
1646.94,0.01741
1643.08,0.01457
1639.22,0.01169
1635.37,0.00938
1631.51,0.00793
1627.65,0.00647
1623.8,0.00525
1619.94,0.00506
1616.08,0.00676
1612.22,0.00713
1608.37,0.00473
1604.51,0.00286
1600.65,0.00148
1596.8,0.00016
1592.94,0.00000
1589.08,0.00058
1585.23,0.00335
1581.37,0.01079
1577.51,0.01448
1573.65,0.00848
1569.8,0.00291
1565.94,0.00061
1562.08,-0.00028
1558.23,-0.00064
1554.37,-0.00026
1550.51,-0.00003
1546.66,-0.00003
1542.8,-0.00025
1538.94,-0.00042
1535.08,-0.00016
1531.23,0.00059
1527.37,0.00185
1523.51,0.00240
1519.66,0.00170
1515.8,0.00255
1511.94,0.00822
1508.09,0.03228
1504.23,0.04849
1500.37,0.01702
1496.51,0.00287
1492.66,0.00011
1488.8,0.00018
1484.94,0.00237
1481.09,0.00656
1477.23,0.01342
1473.37,0.02788
1469.52,0.03009
1465.66,0.01734
1461.8,0.01653
1457.94,0.01844
1454.09,0.01949
1450.23,0.01737
1446.37,0.01433
1442.52,0.01226
1438.66,0.00971
1434.8,0.00570
1430.95,0.00167
1427.09,0.00000
1423.23,0.00167
1419.37,0.01072
1415.52,0.04072
1411.66,0.09534
1407.8,0.10793
1403.95,0.06604
1400.09,0.03466
1396.23,0.02092
1392.38,0.01711
1388.52,0.01977
1384.66,0.02070
1380.8,0.01561
1376.95,0.01304
1373.09,0.01430
1369.23,0.01477
1365.38,0.00869
1361.52,0.00167
1357.66,0.00000
1353.81,0.00342
1349.95,0.01632
1346.09,0.05620
1342.23,0.13819
1338.38,0.16553
1334.52,0.08504
1330.66,0.02180
1326.81,0.00334
1322.95,0.00095
1319.09,0.00285
1315.24,0.00653
1311.38,0.01214
1307.52,0.02022
1303.66,0.03026
1299.81,0.04545
1295.95,0.06579
1292.09,0.08723
1288.24,0.10812
1284.38,0.13029
1280.52,0.15594
1276.67,0.18534
1272.81,0.21875
1268.95,0.25746
1265.09,0.29704
1261.24,0.32862
1257.38,0.35011
1253.52,0.37660
1249.67,0.41361
1245.81,0.44790
1241.95,0.46428
1238.1,0.45052
1234.24,0.41255
1230.38,0.37353
1226.52,0.34451
1222.67,0.31849
1218.81,0.27948
1214.95,0.23506
1211.1,0.19931
1207.24,0.16907
1203.38,0.13813
1199.53,0.10836
1195.67,0.08160
1191.81,0.05947
1187.95,0.04352
1184.1,0.03396
1180.24,0.02978
1176.38,0.02748
1172.53,0.02094
1168.67,0.00864
1164.81,0.00075
1160.96,-0.00012
1157.1,0.00183
1153.24,0.00659
1149.39,0.01488
1145.53,0.02801
1141.67,0.04937
1137.81,0.08393
1133.96,0.13654
1130.1,0.19968
1126.24,0.25647
1122.39,0.29524
1118.53,0.30972
1114.67,0.29992
1110.82,0.30847
1106.96,0.33195
1103.1,0.36387
1099.24,0.38822
1095.39,0.39076
1091.53,0.37224
1087.67,0.34544
1083.82,0.31818
1079.96,0.28561
1076.1,0.24784
1072.25,0.21325
1068.39,0.18375
1064.53,0.15835
1060.67,0.13716
1056.82,0.12122
1052.96,0.11244
1049.1,0.10867
1045.25,0.10448
1041.39,0.09544
1037.53,0.08072
1033.68,0.06299
1029.82,0.04804
1025.96,0.08099
1022.1,0.18798
1018.25,0.24233
1014.39,0.22001
1010.53,0.15521
1006.68,0.11384
1002.82,0.08925
998.962,0.07303
995.105,0.06129
991.248,0.05641
987.391,0.05518
983.534,0.04801
979.677,0.05027
975.82,0.06502
971.963,0.08932
968.106,0.09299
964.249,0.07708
960.392,0.06105
956.535,0.04853
952.678,0.03938
948.821,0.03256
944.964,0.02723
941.107,0.02279
937.25,0.01899
933.393,0.01570
929.536,0.01279
925.679,0.01024
921.822,0.00811
917.965,0.00666
914.108,0.00623
910.251,0.00749
906.394,0.01114
902.537,0.01594
898.68,0.01864
894.823,0.01780
890.966,0.01578
887.109,0.01640
883.252,0.02293
879.395,0.03933
875.538,0.07766
871.681,0.14443
867.824,0.07358
863.967,0.03907
860.11,0.03357
856.253,0.03867
852.396,0.04926
848.539,0.06257
844.682,0.06132
840.825,0.04998
836.968,0.03986
833.111,0.03140
829.254,0.02478
825.397,0.02011
821.54,0.01721
817.683,0.01571
813.826,0.01493
809.969,0.01461
806.112,0.01498
802.255,0.01574
798.398,0.01756
794.541,0.02796
790.684,0.02840
786.827,0.02011
782.97,0.01371
779.113,0.01012
775.256,0.00785
771.399,0.00599
767.542,0.00420
763.685,0.00263
759.828,0.00172
755.971,0.00123
752.114,0.00120
748.257,0.00000
744.4,0.00085
740.543,0.01489
736.686,0.06430
732.829,0.16083
728.972,0.28628
725.115,0.41834
721.258,0.40348
717.401,0.31784
713.544,0.24122
709.687,0.18159
705.83,0.13689
701.973,0.10592
698.116,0.07879
694.259,0.05884
690.402,0.04642
686.545,0.03829
682.688,0.03289
678.831,0.02911
674.974,0.02353
671.117,0.01804
667.26,0.01063
663.403,0.01047
659.546,0.00691
655.689,0.00355
651.832,0.00031
649.904,0.00000