File: Exploratory-Data-Science/Model Testing of Backsheet Color and FTIR Data/FTIR/DampHeat-FTIR/UL DH 500hr PET 3.080-2.SPA.dpt
3999.71,0.00202
3995.85,0.00187
3991.99,0.00161
3988.13,0.00139
3984.28,0.00119
3980.42,0.00104
3976.56,0.00081
3972.71,0.00076
3968.85,0.00060
3964.99,0.00039
3961.14,0.00030
3957.28,0.00022
3953.42,0.00004
3949.56,0.00000
3945.71,-0.00016
3941.85,-0.00019
3937.99,-0.00021
3934.14,-0.00027
3930.28,-0.00026
3926.42,-0.00039
3922.57,-0.00020
3918.71,-0.00032
3914.85,-0.00030
3910.99,-0.00020
3907.14,-0.00006
3903.28,-0.00018
3899.42,-0.00005
3895.57,-0.00006
3891.71,-0.00027
3887.85,-0.00020
3884,-0.00028
3880.14,-0.00036
3876.28,-0.00041
3872.42,-0.00045
3868.57,-0.00049
3864.71,-0.00048
3860.85,-0.00031
3857,-0.00034
3853.14,-0.00031
3849.28,-0.00014
3845.43,0.00000
3841.57,-0.00011
3837.71,-0.00020
3833.85,-0.00033
3830,-0.00036
3826.14,-0.00038
3822.28,-0.00046
3818.43,-0.00033
3814.57,-0.00030
3810.71,-0.00019
3806.86,-0.00033
3803,-0.00017
3799.14,-0.00019
3795.28,-0.00004
3791.43,-0.00009
3787.57,-0.00007
3783.71,-0.00011
3779.86,-0.00019
3776,-0.00018
3772.14,-0.00021
3768.29,0.00004
3764.43,-0.00001
3760.57,0.00010
3756.72,0.00021
3752.86,0.00019
3749,0.00011
3745.14,-0.00002
3741.29,0.00003
3737.43,-0.00053
3733.57,-0.00083
3729.72,-0.00102
3725.86,-0.00111
3722,-0.00068
3718.15,-0.00007
3714.29,0.00040
3710.43,-0.00011
3706.57,-0.00024
3702.72,-0.00021
3698.86,0.00000
3695,0.00030
3691.15,0.00048
3687.29,0.00078
3683.43,0.00091
3679.58,0.00078
3675.72,0.00046
3671.86,0.00040
3668,0.00032
3664.15,0.00047
3660.29,0.00029
3656.43,0.00026
3652.58,0.00026
3648.72,0.00027
3644.86,0.00038
3641.01,0.00029
3637.15,0.00012
3633.29,-0.00022
3629.43,-0.00054
3625.58,-0.00055
3621.72,-0.00043
3617.86,-0.00022
3614.01,0.00017
3610.15,0.00003
3606.29,-0.00017
3602.44,-0.00034
3598.58,-0.00034
3594.72,-0.00023
3590.86,-0.00005
3587.01,0.00016
3583.15,0.00032
3579.29,0.00032
3575.44,0.00040
3571.58,0.00042
3567.72,0.00044
3563.87,0.00051
3560.01,0.00047
3556.15,0.00066
3552.29,0.00053
3548.44,0.00060
3544.58,0.00060
3540.72,0.00039
3536.87,0.00030
3533.01,0.00022
3529.15,0.00010
3525.3,0.00005
3521.44,-0.00018
3517.58,-0.00017
3513.72,-0.00019
3509.87,-0.00028
3506.01,-0.00023
3502.15,-0.00030
3498.3,-0.00026
3494.44,-0.00021
3490.58,-0.00027
3486.73,-0.00008
3482.87,-0.00006
3479.01,-0.00013
3475.15,-0.00029
3471.3,-0.00043
3467.44,-0.00046
3463.58,-0.00046
3459.73,-0.00038
3455.87,-0.00024
3452.01,-0.00007
3448.16,0.00013
3444.3,0.00033
3440.44,0.00081
3436.58,0.00162
3432.73,0.00259
3428.87,0.00279
3425.01,0.00189
3421.16,0.00108
3417.3,0.00040
3413.44,-0.00000
3409.59,-0.00019
3405.73,-0.00037
3401.87,-0.00010
3398.01,0.00009
3394.16,0.00020
3390.3,0.00022
3386.44,0.00006
3382.59,-0.00003
3378.73,-0.00005
3374.87,-0.00011
3371.02,-0.00019
3367.16,-0.00025
3363.3,-0.00023
3359.44,-0.00035
3355.59,-0.00028
3351.73,-0.00015
3347.87,-0.00008
3344.02,0.00004
3340.16,0.00015
3336.3,0.00028
3332.45,0.00031
3328.59,0.00020
3324.73,0.00003
3320.87,-0.00001
3317.02,-0.00009
3313.16,-0.00020
3309.3,-0.00014
3305.45,-0.00003
3301.59,-0.00007
3297.73,0.00003
3293.88,-0.00004
3290.02,-0.00011
3286.16,-0.00001
3282.3,0.00002
3278.45,0.00001
3274.59,0.00007
3270.73,0.00012
3266.88,-0.00006
3263.02,-0.00016
3259.16,-0.00021
3255.31,-0.00029
3251.45,-0.00030
3247.59,-0.00033
3243.73,-0.00018
3239.88,-0.00024
3236.02,-0.00007
3232.16,-0.00004
3228.31,-0.00003
3224.45,-0.00001
3220.59,0.00001
3216.74,-0.00003
3212.88,-0.00014
3209.02,-0.00014
3205.16,-0.00011
3201.31,-0.00014
3197.45,-0.00004
3193.59,0.00010
3189.74,0.00009
3185.88,0.00017
3182.02,0.00016
3178.17,0.00005
3174.31,0.00001
3170.45,0.00002
3166.59,-0.00011
3162.74,-0.00022
3158.88,-0.00039
3155.02,-0.00048
3151.17,-0.00050
3147.31,-0.00055
3143.45,-0.00049
3139.6,-0.00039
3135.74,-0.00019
3131.88,-0.00011
3128.02,0.00005
3124.17,-0.00000
3120.31,-0.00005
3116.45,0.00000
3112.6,0.00011
3108.74,0.00041
3104.88,0.00069
3101.03,0.00075
3097.17,0.00032
3093.31,-0.00001
3089.45,0.00013
3085.6,0.00045
3081.74,0.00071
3077.88,0.00082
3074.03,0.00090
3070.17,0.00107
3066.31,0.00114
3062.46,0.00117
3058.6,0.00175
3054.74,0.00259
3050.88,0.00197
3047.03,0.00091
3043.17,0.00018
3039.31,-0.00022
3035.46,-0.00017
3031.6,-0.00006
3027.74,0.00005
3023.89,0.00022
3020.03,0.00104
3016.17,0.00246
3012.31,0.00281
3008.46,0.00231
3004.6,0.00199
3000.74,0.00189
2996.89,0.00189
2993.03,0.00216
2989.17,0.00260
2985.32,0.00360
2981.46,0.00528
2977.6,0.00790
2973.74,0.01170
2969.89,0.01480
2966.03,0.01431
2962.17,0.01270
2958.32,0.01139
2954.46,0.00984
2950.6,0.00796
2946.75,0.00624
2942.89,0.00508
2939.03,0.00446
2935.17,0.00468
2931.32,0.00541
2927.46,0.00664
2923.6,0.00831
2919.75,0.00943
2915.89,0.00892
2912.03,0.00940
2908.18,0.01103
2904.32,0.00982
2900.46,0.00676
2896.6,0.00489
2892.75,0.00407
2888.89,0.00372
2885.03,0.00322
2881.18,0.00267
2877.32,0.00238
2873.46,0.00242
2869.61,0.00259
2865.75,0.00297
2861.89,0.00363
2858.03,0.00453
2854.18,0.00558
2850.32,0.00666
2846.46,0.00508
2842.61,0.00236
2838.75,0.00102
2834.89,0.00046
2831.04,0.00015
2827.18,0.00006
2823.32,-0.00002
2819.46,0.00005
2815.61,0.00015
2811.75,0.00027
2807.89,0.00038
2804.04,0.00047
2800.18,0.00045
2796.32,0.00026
2792.47,0.00015
2788.61,0.00005
2784.75,-0.00004
2780.89,-0.00003
2777.04,-0.00004
2773.18,-0.00002
2769.32,0.00000
2765.47,0.00008
2761.61,0.00013
2757.75,0.00016
2753.9,0.00021
2750.04,0.00026
2746.18,0.00028
2742.32,0.00022
2738.47,0.00016
2734.61,-0.00001
2730.75,-0.00005
2726.9,-0.00011
2723.04,-0.00012
2719.18,-0.00009
2715.33,-0.00007
2711.47,-0.00007
2707.61,-0.00004
2703.75,0.00007
2699.9,0.00005
2696.04,-0.00003
2692.18,-0.00012
2688.33,-0.00015
2684.47,-0.00019
2680.61,-0.00021
2676.76,-0.00020
2672.9,-0.00018
2669.04,-0.00015
2665.18,-0.00009
2661.33,-0.00005
2657.47,-0.00002
2653.61,0.00002
2649.76,-0.00002
2645.9,-0.00002
2642.04,0.00000
2638.19,0.00015
2634.33,0.00022
2630.47,0.00021
2626.61,0.00011
2622.76,0.00001
2618.9,-0.00002
2615.04,-0.00002
2611.19,0.00004
2607.33,0.00000
2603.47,0.00010
2599.62,0.00021
2595.76,0.00039
2591.9,0.00064
2588.04,0.00089
2584.19,0.00101
2580.33,0.00125
2576.47,0.00142
2572.62,0.00155
2568.76,0.00175
2564.9,0.00200
2561.05,0.00226
2557.19,0.00252
2553.33,0.00284
2549.47,0.00316
2545.62,0.00343
2541.76,0.00374
2537.9,0.00411
2534.05,0.00444
2530.19,0.00478
2526.33,0.00515
2522.48,0.00538
2518.62,0.00562
2514.76,0.00590
2510.9,0.00632
2507.05,0.00674
2503.19,0.00726
2499.33,0.00758
2495.48,0.00803
2491.62,0.00837
2487.76,0.00865
2483.91,0.00905
2480.05,0.00940
2476.19,0.00982
2472.33,0.01035
2468.48,0.01078
2464.62,0.01134
2460.76,0.01189
2456.91,0.01244
2453.05,0.01306
2449.19,0.01366
2445.34,0.01435
2441.48,0.01508
2437.62,0.01589
2433.77,0.01671
2429.91,0.01760
2426.05,0.01856
2422.19,0.01950
2418.34,0.02055
2414.48,0.02152
2410.62,0.02254
2406.77,0.02354
2402.91,0.02461
2399.05,0.02576
2395.2,0.02675
2391.34,0.02772
2387.48,0.02857
2383.62,0.02835
2379.77,0.02552
2375.91,0.01900
2372.05,0.01097
2368.2,0.00437
2364.34,0.00071
2360.48,-0.00000
2356.63,0.00184
2352.77,0.01016
2348.91,0.02060
2345.05,0.00999
2341.2,0.00529
2337.34,0.00513
2333.48,0.00566
2329.63,0.00625
2325.77,0.00840
2321.91,0.01005
2318.06,0.01320
2314.2,0.01583
2310.34,0.01796
2306.48,0.01961
2302.63,0.02072
2298.77,0.02095
2294.91,0.02124
2291.06,0.02125
2287.2,0.02107
2283.34,0.02052
2279.49,0.01947
2275.63,0.01850
2271.77,0.01778
2267.91,0.01710
2264.06,0.01640
2260.2,0.01569
2256.34,0.01494
2252.49,0.01417
2248.63,0.01333
2244.77,0.01265
2240.92,0.01183
2237.06,0.01102
2233.2,0.01055
2229.34,0.01009
2225.49,0.00945
2221.63,0.00880
2217.77,0.00819
2213.92,0.00753
2210.06,0.00708
2206.2,0.00647
2202.35,0.00583
2198.49,0.00525
2194.63,0.00444
2190.77,0.00398
2186.92,0.00351
2183.06,0.00264
2179.2,0.00276
2175.35,0.00250
2171.49,0.00267
2167.63,0.00217
2163.78,0.00122
2159.92,0.00000
2156.06,0.00167
2152.2,0.00388
2148.35,0.00523
2144.49,0.00621
2140.63,0.00713
2136.78,0.00788
2132.92,0.00893
2129.06,0.01002
2125.21,0.01067
2121.35,0.01123
2117.49,0.01153
2113.63,0.01162
2109.78,0.01150
2105.92,0.01123
2102.06,0.01098
2098.21,0.01066
2094.35,0.01055
2090.49,0.01044
2086.64,0.01005
2082.78,0.00941
2078.92,0.00879
2075.06,0.00809
2071.21,0.00766
2067.35,0.00712
2063.49,0.00657
2059.64,0.00617
2055.78,0.00550
2051.92,0.00466
2048.07,0.00289
2044.21,0.00202
2040.35,0.00146
2036.49,0.00037
2032.64,-0.00002
2028.78,-0.00008
2024.92,-0.00001
2021.07,0.00000
2017.21,0.00011
2013.35,0.00043
2009.5,0.00036
2005.64,0.00061
2001.78,0.00139
1997.92,0.00166
1994.07,0.00191
1990.21,0.00173
1986.35,0.00146
1982.5,0.00109
1978.64,0.00073
1974.78,0.00079
1970.93,0.00191
1967.07,0.00340
1963.21,0.00545
1959.35,0.00600
1955.5,0.00551
1951.64,0.00475
1947.78,0.00404
1943.93,0.00318
1940.07,0.00252
1936.21,0.00191
1932.36,0.00153
1928.5,0.00124
1924.64,0.00110
1920.78,0.00077
1916.93,0.00054
1913.07,0.00042
1909.21,0.00036
1905.36,0.00026
1901.5,0.00008
1897.64,0.00005
1893.79,-0.00003
1889.93,-0.00002
1886.07,-0.00009
1882.21,-0.00019
1878.36,-0.00022
1874.5,-0.00020
1870.64,-0.00018
1866.79,0.00001
1862.93,0.00005
1859.07,-0.00003
1855.22,0.00002
1851.36,0.00026
1847.5,0.00057
1843.64,0.00090
1839.79,0.00127
1835.93,0.00155
1832.07,0.00185
1828.22,0.00195
1824.36,0.00184
1820.5,0.00155
1816.65,0.00138
1812.79,0.00129
1808.93,0.00116
1805.07,0.00090
1801.22,0.00059
1797.36,0.00032
1793.5,0.00014
1789.65,0.00004
1785.79,-0.00005
1781.93,-0.00011
1778.08,-0.00004
1774.22,0.00017
1770.36,0.00054
1766.5,0.00127
1762.65,0.00233
1758.79,0.00417
1754.93,0.00735
1751.08,0.01344
1747.22,0.02615
1743.36,0.05127
1739.51,0.09030
1735.65,0.13949
1731.79,0.19770
1727.93,0.26136
1724.08,0.32572
1720.22,0.39006
1716.36,0.45612
1712.51,0.49586
1708.65,0.44468
1704.79,0.34653
1700.94,0.25357
1697.08,0.18798
1693.22,0.14540
1689.36,0.11650
1685.51,0.10215
1681.65,0.09324
1677.79,0.07670
1673.94,0.06375
1670.08,0.05367
1666.22,0.04346
1662.37,0.03421
1658.51,0.02754
1654.65,0.02292
1650.79,0.01994
1646.94,0.01839
1643.08,0.01547
1639.22,0.01213
1635.37,0.00989
1631.51,0.00837
1627.65,0.00688
1623.8,0.00544
1619.94,0.00498
1616.08,0.00634
1612.22,0.00647
1608.37,0.00438
1604.51,0.00272
1600.65,0.00150
1596.8,0.00032
1592.94,0.00000
1589.08,0.00038
1585.23,0.00264
1581.37,0.00882
1577.51,0.01188
1573.65,0.00677
1569.8,0.00216
1565.94,0.00022
1562.08,-0.00045
1558.23,-0.00050
1554.37,-0.00013
1550.51,0.00012
1546.66,0.00012
1542.8,-0.00014
1538.94,-0.00031
1535.08,-0.00020
1531.23,0.00045
1527.37,0.00157
1523.51,0.00208
1519.66,0.00160
1515.8,0.00258
1511.94,0.00772
1508.09,0.02862
1504.23,0.04209
1500.37,0.01477
1496.51,0.00256
1492.66,0.00009
1488.8,0.00018
1484.94,0.00194
1481.09,0.00535
1477.23,0.01111
1473.37,0.02357
1469.52,0.02605
1465.66,0.01462
1461.8,0.01361
1457.94,0.01520
1454.09,0.01600
1450.23,0.01424
1446.37,0.01172
1442.52,0.00998
1438.66,0.00789
1434.8,0.00464
1430.95,0.00133
1427.09,0.00000
1423.23,0.00161
1419.37,0.00952
1415.52,0.03522
1411.66,0.08134
1407.8,0.09132
1403.95,0.05607
1400.09,0.02959
1396.23,0.01789
1392.38,0.01479
1388.52,0.01739
1384.66,0.01820
1380.8,0.01360
1376.95,0.01120
1373.09,0.01222
1369.23,0.01264
1365.38,0.00747
1361.52,0.00148
1357.66,0.00000
1353.81,0.00291
1349.95,0.01418
1346.09,0.04930
1342.23,0.12214
1338.38,0.14785
1334.52,0.07626
1330.66,0.01969
1326.81,0.00316
1322.95,0.00084
1319.09,0.00234
1315.24,0.00548
1311.38,0.01015
1307.52,0.01684
1303.66,0.02536
1299.81,0.03823
1295.95,0.05525
1292.09,0.07319
1288.24,0.09082
1284.38,0.11000
1280.52,0.13242
1276.67,0.15805
1272.81,0.18657
1268.95,0.21858
1265.09,0.25045
1261.24,0.27539
1257.38,0.29286
1253.52,0.31537
1249.67,0.34737
1245.81,0.37838
1241.95,0.39712
1238.1,0.39374
1234.24,0.37035
1230.38,0.34272
1226.52,0.31900
1222.67,0.29624
1218.81,0.26249
1214.95,0.22289
1211.1,0.19061
1207.24,0.16285
1203.38,0.13404
1199.53,0.10596
1195.67,0.08057
1191.81,0.05964
1187.95,0.04423
1184.1,0.03422
1180.24,0.02911
1176.38,0.02622
1172.53,0.01983
1168.67,0.00859
1164.81,0.00113
1160.96,0.00000
1157.1,0.00135
1153.24,0.00522
1149.39,0.01216
1145.53,0.02340
1141.67,0.04203
1137.81,0.07257
1133.96,0.11929
1130.1,0.17480
1126.24,0.22438
1122.39,0.25824
1118.53,0.27076
1114.67,0.26184
1110.82,0.27016
1106.96,0.28988
1103.1,0.31503
1099.24,0.33487
1095.39,0.33880
1091.53,0.32681
1087.67,0.30812
1083.82,0.28864
1079.96,0.26408
1076.1,0.23351
1072.25,0.20378
1068.39,0.17743
1064.53,0.15418
1060.67,0.13429
1056.82,0.11868
1052.96,0.10890
1049.1,0.10377
1045.25,0.09923
1041.39,0.09103
1037.53,0.07743
1033.68,0.06048
1029.82,0.04545
1025.96,0.07430
1022.1,0.17190
1018.25,0.22000
1014.39,0.20560
1010.53,0.15074
1006.68,0.11323
1002.82,0.09021
998.962,0.07473
995.105,0.06331
991.248,0.05819
987.391,0.05686
983.534,0.04968
979.677,0.05107
975.82,0.06429
971.963,0.08735
968.106,0.09192
964.249,0.07774
960.392,0.06300
956.535,0.05136
952.678,0.04274
948.821,0.03631
944.964,0.03118
941.107,0.02692
937.25,0.02323
933.393,0.02002
929.536,0.01713
925.679,0.01458
921.822,0.01241
917.965,0.01080
914.108,0.01014
910.251,0.01099
906.394,0.01404
902.537,0.01815
898.68,0.02046
894.823,0.01955
890.966,0.01742
887.109,0.01758
883.252,0.02298
879.395,0.03691
875.538,0.07074
871.681,0.12951
867.824,0.06737
863.967,0.03739
860.11,0.03255
856.253,0.03719
852.396,0.04709
848.539,0.05994
844.682,0.05959
840.825,0.04936
836.968,0.03992
833.111,0.03205
829.254,0.02589
825.397,0.02145
821.54,0.01854
817.683,0.01699
813.826,0.01612
809.969,0.01568
806.112,0.01593
802.255,0.01656
798.398,0.01809
794.541,0.02739
790.684,0.02791
786.827,0.02024
782.97,0.01419
779.113,0.01062
775.256,0.00833
771.399,0.00642
767.542,0.00451
763.685,0.00287
759.828,0.00176
755.971,0.00101
752.114,0.00058
748.257,0.00000
744.4,0.00077
740.543,0.01341
736.686,0.05930
732.829,0.15071
728.972,0.26744
725.115,0.38420
721.258,0.36895
717.401,0.28871
713.544,0.21811
709.687,0.16453
705.83,0.12447
701.973,0.09677
698.116,0.07249
694.259,0.05448
690.402,0.04313
686.545,0.03573
682.688,0.03081
678.831,0.02740
674.974,0.02240
671.117,0.01719
667.26,0.00915
663.403,0.01076
659.546,0.00759
655.689,0.00448
651.832,0.00150
649.904,0.00000