File: Exploratory-Data-Science/Model Testing of Backsheet Color and FTIR Data/FTIR/DampHeat-FTIR/UL DH 0hr PET 3.030-2.SPA.dpt
3999.71,0.00288
3995.85,0.00259
3991.99,0.00222
3988.13,0.00191
3984.28,0.00158
3980.42,0.00143
3976.56,0.00126
3972.71,0.00103
3968.85,0.00087
3964.99,0.00061
3961.14,0.00049
3957.28,0.00033
3953.42,0.00012
3949.56,0.00000
3945.71,-0.00004
3941.85,-0.00023
3937.99,-0.00027
3934.14,-0.00026
3930.28,-0.00032
3926.42,-0.00014
3922.57,-0.00021
3918.71,-0.00023
3914.85,-0.00007
3910.99,0.00002
3907.14,-0.00002
3903.28,-0.00010
3899.42,0.00000
3895.57,0.00002
3891.71,-0.00008
3887.85,-0.00013
3884,-0.00035
3880.14,-0.00039
3876.28,-0.00030
3872.42,-0.00042
3868.57,-0.00047
3864.71,-0.00042
3860.85,-0.00021
3857,-0.00026
3853.14,-0.00060
3849.28,-0.00006
3845.43,0.00000
3841.57,-0.00018
3837.71,-0.00047
3833.85,-0.00025
3830,-0.00043
3826.14,-0.00043
3822.28,-0.00058
3818.43,-0.00037
3814.57,-0.00047
3810.71,-0.00021
3806.86,-0.00037
3803,-0.00022
3799.14,-0.00009
3795.28,0.00000
3791.43,-0.00014
3787.57,-0.00015
3783.71,-0.00016
3779.86,-0.00027
3776,-0.00011
3772.14,-0.00024
3768.29,-0.00016
3764.43,-0.00005
3760.57,0.00008
3756.72,0.00024
3752.86,-0.00003
3749,-0.00008
3745.14,-0.00026
3741.29,0.00000
3737.43,-0.00059
3733.57,-0.00093
3729.72,-0.00110
3725.86,-0.00115
3722,-0.00085
3718.15,-0.00022
3714.29,0.00010
3710.43,-0.00034
3706.57,-0.00025
3702.72,-0.00018
3698.86,0.00009
3695,0.00037
3691.15,0.00064
3687.29,0.00078
3683.43,0.00102
3679.58,0.00072
3675.72,0.00033
3671.86,0.00019
3668,0.00002
3664.15,0.00020
3660.29,0.00024
3656.43,0.00019
3652.58,0.00010
3648.72,-0.00002
3644.86,0.00023
3641.01,0.00014
3637.15,0.00000
3633.29,-0.00033
3629.43,-0.00080
3625.58,-0.00082
3621.72,-0.00064
3617.86,-0.00046
3614.01,-0.00018
3610.15,-0.00029
3606.29,-0.00051
3602.44,-0.00068
3598.58,-0.00058
3594.72,-0.00050
3590.86,-0.00025
3587.01,0.00000
3583.15,0.00015
3579.29,0.00009
3575.44,0.00018
3571.58,0.00031
3567.72,0.00026
3563.87,0.00042
3560.01,0.00049
3556.15,0.00042
3552.29,0.00054
3548.44,0.00045
3544.58,0.00032
3540.72,0.00032
3536.87,0.00020
3533.01,0.00000
3529.15,-0.00011
3525.3,-0.00027
3521.44,-0.00034
3517.58,-0.00056
3513.72,-0.00058
3509.87,-0.00047
3506.01,-0.00043
3502.15,-0.00050
3498.3,-0.00056
3494.44,-0.00043
3490.58,-0.00031
3486.73,-0.00022
3482.87,0.00000
3479.01,-0.00015
3475.15,-0.00042
3471.3,-0.00046
3467.44,-0.00063
3463.58,-0.00048
3459.73,-0.00023
3455.87,0.00000
3452.01,0.00028
3448.16,0.00065
3444.3,0.00118
3440.44,0.00201
3436.58,0.00333
3432.73,0.00497
3428.87,0.00526
3425.01,0.00369
3421.16,0.00201
3417.3,0.00089
3413.44,0.00028
3409.59,0.00003
3405.73,0.00024
3401.87,0.00094
3398.01,0.00174
3394.16,0.00224
3390.3,0.00200
3386.44,0.00117
3382.59,0.00045
3378.73,-0.00011
3374.87,-0.00055
3371.02,-0.00082
3367.16,-0.00096
3363.3,-0.00109
3359.44,-0.00106
3355.59,-0.00097
3351.73,-0.00081
3347.87,-0.00065
3344.02,-0.00034
3340.16,-0.00007
3336.3,0.00002
3332.45,0.00014
3328.59,0.00012
3324.73,0.00000
3320.87,-0.00010
3317.02,-0.00021
3313.16,-0.00020
3309.3,-0.00021
3305.45,-0.00011
3301.59,0.00009
3297.73,0.00015
3293.88,0.00008
3290.02,-0.00005
3286.16,-0.00014
3282.3,-0.00012
3278.45,-0.00004
3274.59,0.00000
3270.73,-0.00022
3266.88,-0.00046
3263.02,-0.00054
3259.16,-0.00067
3255.31,-0.00079
3251.45,-0.00065
3247.59,-0.00057
3243.73,-0.00059
3239.88,-0.00047
3236.02,-0.00038
3232.16,-0.00033
3228.31,-0.00028
3224.45,-0.00011
3220.59,0.00000
3216.74,-0.00011
3212.88,-0.00021
3209.02,-0.00015
3205.16,-0.00009
3201.31,0.00006
3197.45,0.00029
3193.59,0.00058
3189.74,0.00069
3185.88,0.00078
3182.02,0.00056
3178.17,0.00044
3174.31,0.00028
3170.45,0.00000
3166.59,-0.00030
3162.74,-0.00063
3158.88,-0.00086
3155.02,-0.00110
3151.17,-0.00114
3147.31,-0.00111
3143.45,-0.00099
3139.6,-0.00084
3135.74,-0.00060
3131.88,-0.00022
3128.02,0.00004
3124.17,0.00000
3120.31,0.00000
3116.45,0.00015
3112.6,0.00036
3108.74,0.00091
3104.88,0.00128
3101.03,0.00134
3097.17,0.00066
3093.31,0.00012
3089.45,0.00036
3085.6,0.00090
3081.74,0.00147
3077.88,0.00150
3074.03,0.00161
3070.17,0.00195
3066.31,0.00209
3062.46,0.00209
3058.6,0.00289
3054.74,0.00401
3050.88,0.00309
3047.03,0.00129
3043.17,0.00004
3039.31,-0.00038
3035.46,-0.00026
3031.6,-0.00013
3027.74,0.00000
3023.89,0.00054
3020.03,0.00205
3016.17,0.00430
3012.31,0.00516
3008.46,0.00473
3004.6,0.00443
3000.74,0.00443
2996.89,0.00457
2993.03,0.00513
2989.17,0.00626
2985.32,0.00829
2981.46,0.01123
2977.6,0.01556
2973.74,0.02149
2969.89,0.02608
2966.03,0.02541
2962.17,0.02336
2958.32,0.02164
2954.46,0.01895
2950.6,0.01527
2946.75,0.01222
2942.89,0.01068
2939.03,0.01039
2935.17,0.01165
2931.32,0.01459
2927.46,0.01904
2923.6,0.02587
2919.75,0.03253
2915.89,0.03308
2912.03,0.02695
2908.18,0.02414
2904.32,0.02010
2900.46,0.01461
2896.6,0.01128
2892.75,0.00954
2888.89,0.00836
2885.03,0.00710
2881.18,0.00599
2877.32,0.00549
2873.46,0.00569
2869.61,0.00585
2865.75,0.00632
2861.89,0.00775
2858.03,0.01018
2854.18,0.01447
2850.32,0.02138
2846.46,0.01686
2842.61,0.00691
2838.75,0.00297
2834.89,0.00130
2831.04,0.00057
2827.18,0.00024
2823.32,-0.00001
2819.46,0.00000
2815.61,0.00010
2811.75,0.00024
2807.89,0.00037
2804.04,0.00051
2800.18,0.00038
2796.32,0.00015
2792.47,-0.00003
2788.61,-0.00024
2784.75,-0.00032
2780.89,-0.00039
2777.04,-0.00040
2773.18,-0.00033
2769.32,-0.00025
2765.47,-0.00017
2761.61,-0.00009
2757.75,0.00000
2753.9,0.00010
2750.04,0.00008
2746.18,0.00015
2742.32,0.00013
2738.47,-0.00001
2734.61,-0.00016
2730.75,-0.00024
2726.9,-0.00033
2723.04,-0.00033
2719.18,-0.00028
2715.33,-0.00025
2711.47,-0.00018
2707.61,-0.00013
2703.75,-0.00009
2699.9,0.00000
2696.04,-0.00013
2692.18,-0.00030
2688.33,-0.00042
2684.47,-0.00040
2680.61,-0.00045
2676.76,-0.00045
2672.9,-0.00042
2669.04,-0.00034
2665.18,-0.00026
2661.33,-0.00015
2657.47,-0.00003
2653.61,0.00000
2649.76,0.00000
2645.9,-0.00007
2642.04,0.00001
2638.19,0.00014
2634.33,0.00026
2630.47,0.00026
2626.61,0.00008
2622.76,-0.00012
2618.9,-0.00016
2615.04,-0.00024
2611.19,-0.00017
2607.33,-0.00016
2603.47,-0.00010
2599.62,-0.00005
2595.76,0.00000
2591.9,0.00005
2588.04,0.00016
2584.19,0.00030
2580.33,0.00033
2576.47,0.00023
2572.62,0.00031
2568.76,0.00027
2564.9,0.00046
2561.05,0.00062
2557.19,0.00071
2553.33,0.00088
2549.47,0.00100
2545.62,0.00125
2541.76,0.00152
2537.9,0.00179
2534.05,0.00205
2530.19,0.00233
2526.33,0.00254
2522.48,0.00263
2518.62,0.00285
2514.76,0.00298
2510.9,0.00331
2507.05,0.00370
2503.19,0.00398
2499.33,0.00437
2495.48,0.00473
2491.62,0.00506
2487.76,0.00523
2483.91,0.00555
2480.05,0.00586
2476.19,0.00625
2472.33,0.00676
2468.48,0.00727
2464.62,0.00781
2460.76,0.00846
2456.91,0.00907
2453.05,0.00965
2449.19,0.01026
2445.34,0.01104
2441.48,0.01196
2437.62,0.01290
2433.77,0.01389
2429.91,0.01495
2426.05,0.01602
2422.19,0.01718
2418.34,0.01835
2414.48,0.01950
2410.62,0.02081
2406.77,0.02210
2402.91,0.02336
2399.05,0.02474
2395.2,0.02598
2391.34,0.02728
2387.48,0.02846
2383.62,0.02844
2379.77,0.02566
2375.91,0.01919
2372.05,0.01084
2368.2,0.00403
2364.34,0.00020
2360.48,0.00000
2356.63,0.00204
2352.77,0.01077
2348.91,0.02137
2345.05,0.01032
2341.2,0.00510
2337.34,0.00479
2333.48,0.00515
2329.63,0.00589
2325.77,0.00824
2321.91,0.00991
2318.06,0.01290
2314.2,0.01544
2310.34,0.01754
2306.48,0.01935
2302.63,0.02045
2298.77,0.02088
2294.91,0.02109
2291.06,0.02104
2287.2,0.02073
2283.34,0.02020
2279.49,0.01918
2275.63,0.01809
2271.77,0.01724
2267.91,0.01651
2264.06,0.01595
2260.2,0.01525
2256.34,0.01442
2252.49,0.01375
2248.63,0.01293
2244.77,0.01216
2240.92,0.01124
2237.06,0.01073
2233.2,0.01006
2229.34,0.00957
2225.49,0.00905
2221.63,0.00848
2217.77,0.00784
2213.92,0.00732
2210.06,0.00685
2206.2,0.00637
2202.35,0.00575
2198.49,0.00523
2194.63,0.00473
2190.77,0.00410
2186.92,0.00371
2183.06,0.00322
2179.2,0.00335
2175.35,0.00326
2171.49,0.00337
2167.63,0.00308
2163.78,0.00194
2159.92,0.00000
2156.06,0.00178
2152.2,0.00435
2148.35,0.00609
2144.49,0.00724
2140.63,0.00828
2136.78,0.00906
2132.92,0.01031
2129.06,0.01154
2125.21,0.01255
2121.35,0.01327
2117.49,0.01356
2113.63,0.01350
2109.78,0.01322
2105.92,0.01275
2102.06,0.01255
2098.21,0.01216
2094.35,0.01212
2090.49,0.01193
2086.64,0.01153
2082.78,0.01090
2078.92,0.01011
2075.06,0.00921
2071.21,0.00846
2067.35,0.00792
2063.49,0.00747
2059.64,0.00707
2055.78,0.00644
2051.92,0.00532
2048.07,0.00335
2044.21,0.00212
2040.35,0.00140
2036.49,0.00044
2032.64,0.00005
2028.78,0.00000
2024.92,0.00018
2021.07,0.00020
2017.21,0.00035
2013.35,0.00043
2009.5,0.00030
2005.64,0.00082
2001.78,0.00183
1997.92,0.00217
1994.07,0.00244
1990.21,0.00244
1986.35,0.00231
1982.5,0.00193
1978.64,0.00115
1974.78,0.00123
1970.93,0.00251
1967.07,0.00453
1963.21,0.00702
1959.35,0.00785
1955.5,0.00705
1951.64,0.00595
1947.78,0.00478
1943.93,0.00389
1940.07,0.00296
1936.21,0.00217
1932.36,0.00161
1928.5,0.00129
1924.64,0.00101
1920.78,0.00070
1916.93,0.00047
1913.07,0.00025
1909.21,0.00008
1905.36,0.00000
1901.5,-0.00004
1897.64,-0.00016
1893.79,-0.00023
1889.93,-0.00031
1886.07,-0.00033
1882.21,-0.00042
1878.36,-0.00044
1874.5,-0.00045
1870.64,-0.00045
1866.79,-0.00029
1862.93,0.00000
1859.07,-0.00011
1855.22,-0.00007
1851.36,0.00018
1847.5,0.00066
1843.64,0.00100
1839.79,0.00151
1835.93,0.00193
1832.07,0.00218
1828.22,0.00234
1824.36,0.00222
1820.5,0.00193
1816.65,0.00173
1812.79,0.00166
1808.93,0.00153
1805.07,0.00118
1801.22,0.00069
1797.36,0.00033
1793.5,0.00000
1789.65,-0.00012
1785.79,-0.00025
1781.93,-0.00031
1778.08,-0.00030
1774.22,-0.00006
1770.36,0.00055
1766.5,0.00161
1762.65,0.00322
1758.79,0.00598
1754.93,0.01068
1751.08,0.01953
1747.22,0.03792
1743.36,0.07376
1739.51,0.12869
1735.65,0.19598
1731.79,0.27526
1727.93,0.36411
1724.08,0.46030
1720.22,0.56799
1716.36,0.68165
1712.51,0.71558
1708.65,0.60497
1704.79,0.45330
1700.94,0.32449
1697.08,0.23815
1693.22,0.18369
1689.36,0.14765
1685.51,0.13043
1681.65,0.11914
1677.79,0.09731
1673.94,0.08063
1670.08,0.06765
1666.22,0.05450
1662.37,0.04269
1658.51,0.03449
1654.65,0.02904
1650.79,0.02668
1646.94,0.02643
1643.08,0.02276
1639.22,0.01699
1635.37,0.01333
1631.51,0.01151
1627.65,0.00972
1623.8,0.00752
1619.94,0.00668
1616.08,0.00844
1612.22,0.00860
1608.37,0.00569
1604.51,0.00345
1600.65,0.00182
1596.8,0.00024
1592.94,0.00000
1589.08,0.00066
1585.23,0.00385
1581.37,0.01231
1577.51,0.01651
1573.65,0.00959
1569.8,0.00329
1565.94,0.00066
1562.08,-0.00030
1558.23,-0.00067
1554.37,-0.00028
1550.51,-0.00007
1546.66,-0.00013
1542.8,-0.00040
1538.94,-0.00056
1535.08,-0.00027
1531.23,0.00064
1527.37,0.00209
1523.51,0.00268
1519.66,0.00185
1515.8,0.00281
1511.94,0.00935
1508.09,0.03646
1504.23,0.05405
1500.37,0.01896
1496.51,0.00324
1492.66,0.00016
1488.8,0.00023
1484.94,0.00283
1481.09,0.00778
1477.23,0.01587
1473.37,0.03302
1469.52,0.03728
1465.66,0.02181
1461.8,0.02026
1457.94,0.02219
1454.09,0.02317
1450.23,0.02045
1446.37,0.01671
1442.52,0.01422
1438.66,0.01118
1434.8,0.00651
1430.95,0.00180
1427.09,0.00000
1423.23,0.00234
1419.37,0.01313
1415.52,0.04733
1411.66,0.10968
1407.8,0.12433
1403.95,0.07582
1400.09,0.03964
1396.23,0.02375
1392.38,0.01918
1388.52,0.02171
1384.66,0.02230
1380.8,0.01703
1376.95,0.01479
1373.09,0.01652
1369.23,0.01698
1365.38,0.00983
1361.52,0.00182
1357.66,0.00000
1353.81,0.00388
1349.95,0.01850
1346.09,0.06322
1342.23,0.15238
1338.38,0.17797
1334.52,0.09059
1330.66,0.02330
1326.81,0.00368
1322.95,0.00141
1319.09,0.00375
1315.24,0.00806
1311.38,0.01456
1307.52,0.02392
1303.66,0.03548
1299.81,0.05276
1295.95,0.07600
1292.09,0.10071
1288.24,0.12486
1284.38,0.15038
1280.52,0.17944
1276.67,0.21249
1272.81,0.25055
1268.95,0.29584
1265.09,0.34380
1261.24,0.38332
1257.38,0.40970
1253.52,0.43971
1249.67,0.48094
1245.81,0.51872
1241.95,0.53367
1238.1,0.50912
1234.24,0.45463
1230.38,0.40183
1226.52,0.36412
1222.67,0.33142
1218.81,0.28552
1214.95,0.23655
1211.1,0.19824
1207.24,0.16642
1203.38,0.13460
1199.53,0.10454
1195.67,0.07791
1191.81,0.05613
1187.95,0.04087
1184.1,0.03218
1180.24,0.02925
1176.38,0.02804
1172.53,0.02172
1168.67,0.00876
1164.81,0.00058
1160.96,-0.00008
1157.1,0.00229
1153.24,0.00783
1149.39,0.01747
1145.53,0.03255
1141.67,0.05680
1137.81,0.09562
1133.96,0.15416
1130.1,0.22373
1126.24,0.28533
1122.39,0.32703
1118.53,0.34249
1114.67,0.33211
1110.82,0.34087
1106.96,0.36802
1103.1,0.40726
1099.24,0.43695
1095.39,0.43917
1091.53,0.41448
1087.67,0.37922
1083.82,0.34338
1079.96,0.30141
1076.1,0.25497
1072.25,0.21469
1068.39,0.18186
1064.53,0.15457
1060.67,0.13240
1056.82,0.11622
1052.96,0.10755
1049.1,0.10448
1045.25,0.10159
1041.39,0.09336
1037.53,0.07883
1033.68,0.06142
1029.82,0.04764
1025.96,0.08548
1022.1,0.19837
1018.25,0.25685
1014.39,0.22478
1010.53,0.14932
1006.68,0.10551
1002.82,0.08069
998.962,0.06478
995.105,0.05343
991.248,0.04953
987.391,0.04865
983.534,0.04216
979.677,0.04583
975.82,0.06218
971.963,0.08686
968.106,0.08823
964.249,0.07051
960.392,0.05366
956.535,0.04083
952.678,0.03160
948.821,0.02477
944.964,0.01952
941.107,0.01520
937.25,0.01151
933.393,0.00839
929.536,0.00559
925.679,0.00315
921.822,0.00119
917.965,0.00000
914.108,-0.00009
910.251,0.00162
906.394,0.00591
902.537,0.01128
898.68,0.01436
894.823,0.01362
890.966,0.01169
887.109,0.01280
883.252,0.02050
879.395,0.03912
875.538,0.08117
871.681,0.15447
867.824,0.07698
863.967,0.03900
860.11,0.03303
856.253,0.03847
852.396,0.04959
848.539,0.06319
844.682,0.06114
840.825,0.04885
836.968,0.03809
833.111,0.02916
829.254,0.02222
825.397,0.01747
821.54,0.01460
817.683,0.01330
813.826,0.01264
809.969,0.01239
806.112,0.01299
802.255,0.01398
798.398,0.01623
794.541,0.02767
790.684,0.02795
786.827,0.01901
782.97,0.01221
779.113,0.00848
775.256,0.00623
771.399,0.00441
767.542,0.00264
763.685,0.00119
759.828,0.00045
755.971,0.00022
752.114,0.00049
748.257,-0.00049
744.4,0.00070
740.543,0.01601
736.686,0.06824
732.829,0.16822
728.972,0.29924
725.115,0.44240
721.258,0.42805
717.401,0.33784
713.544,0.25869
709.687,0.19536
705.83,0.14724
701.973,0.11366
698.116,0.08402
694.259,0.06243
690.402,0.04906
686.545,0.04039
682.688,0.03467
678.831,0.03064
674.974,0.02454
671.117,0.01850
667.26,0.00964
663.403,0.01086
659.546,0.00706
655.689,0.00360
651.832,0.00021
649.904,0.00000