File: Exploratory-Data-Science/Model Testing of Backsheet Color and FTIR Data/FTIR/XENON1-FTIR/Arkema XENON 3800HR PET 3.005-2.SPA.dpt
3999.71,0.00073
3995.85,0.00059
3991.99,0.00053
3988.13,0.00043
3984.28,0.00036
3980.42,0.00028
3976.56,0.00022
3972.71,0.00022
3968.85,0.00013
3964.99,0.00009
3961.14,-0.00005
3957.28,-0.00001
3953.42,-0.00003
3949.56,0.00000
3945.71,-0.00010
3941.85,-0.00017
3937.99,-0.00022
3934.14,-0.00023
3930.28,-0.00017
3926.42,-0.00015
3922.57,-0.00013
3918.71,-0.00009
3914.85,-0.00017
3910.99,-0.00016
3907.14,-0.00007
3903.28,-0.00010
3899.42,0.00003
3895.57,-0.00002
3891.71,-0.00008
3887.85,-0.00006
3884,-0.00006
3880.14,-0.00013
3876.28,-0.00010
3872.42,-0.00009
3868.57,-0.00009
3864.71,-0.00008
3860.85,-0.00000
3857,-0.00006
3853.14,0.00022
3849.28,0.00003
3845.43,0.00004
3841.57,0.00003
3837.71,0.00015
3833.85,-0.00012
3830,-0.00011
3826.14,-0.00000
3822.28,-0.00001
3818.43,-0.00006
3814.57,0.00001
3810.71,-0.00006
3806.86,-0.00002
3803,-0.00005
3799.14,0.00001
3795.28,0.00003
3791.43,-0.00007
3787.57,-0.00006
3783.71,-0.00004
3779.86,-0.00000
3776,-0.00015
3772.14,-0.00018
3768.29,-0.00014
3764.43,-0.00006
3760.57,-0.00008
3756.72,-0.00005
3752.86,-0.00007
3749,0.00008
3745.14,0.00015
3741.29,0.00002
3737.43,0.00006
3733.57,0.00009
3729.72,-0.00002
3725.86,-0.00004
3722,-0.00007
3718.15,-0.00013
3714.29,-0.00019
3710.43,-0.00005
3706.57,-0.00017
3702.72,-0.00001
3698.86,-0.00004
3695,-0.00004
3691.15,0.00004
3687.29,0.00002
3683.43,-0.00013
3679.58,-0.00018
3675.72,0.00004
3671.86,-0.00012
3668,-0.00024
3664.15,-0.00018
3660.29,-0.00005
3656.43,0.00001
3652.58,-0.00010
3648.72,0.00009
3644.86,0.00000
3641.01,0.00010
3637.15,0.00013
3633.29,0.00006
3629.43,0.00021
3625.58,0.00011
3621.72,0.00013
3617.86,0.00018
3614.01,-0.00007
3610.15,-0.00010
3606.29,0.00001
3602.44,0.00006
3598.58,0.00001
3594.72,0.00009
3590.86,0.00013
3587.01,0.00013
3583.15,0.00003
3579.29,0.00018
3575.44,0.00006
3571.58,0.00003
3567.72,0.00013
3563.87,-0.00002
3560.01,0.00003
3556.15,-0.00006
3552.29,0.00001
3548.44,0.00003
3544.58,-0.00005
3540.72,-0.00002
3536.87,0.00012
3533.01,0.00001
3529.15,0.00012
3525.3,0.00010
3521.44,0.00010
3517.58,0.00006
3513.72,0.00005
3509.87,0.00005
3506.01,-0.00011
3502.15,-0.00005
3498.3,-0.00003
3494.44,0.00001
3490.58,-0.00001
3486.73,-0.00005
3482.87,-0.00000
3479.01,-0.00004
3475.15,-0.00010
3471.3,-0.00010
3467.44,-0.00010
3463.58,-0.00008
3459.73,-0.00009
3455.87,-0.00013
3452.01,-0.00010
3448.16,-0.00006
3444.3,-0.00013
3440.44,0.00001
3436.58,-0.00003
3432.73,0.00000
3428.87,0.00007
3425.01,0.00002
3421.16,-0.00001
3417.3,-0.00006
3413.44,-0.00011
3409.59,-0.00011
3405.73,-0.00016
3401.87,-0.00005
3398.01,0.00002
3394.16,-0.00002
3390.3,-0.00008
3386.44,0.00000
3382.59,-0.00001
3378.73,0.00003
3374.87,0.00007
3371.02,-0.00009
3367.16,-0.00014
3363.3,-0.00014
3359.44,-0.00022
3355.59,-0.00020
3351.73,-0.00022
3347.87,-0.00013
3344.02,-0.00019
3340.16,-0.00005
3336.3,-0.00005
3332.45,-0.00001
3328.59,0.00001
3324.73,0.00009
3320.87,0.00003
3317.02,0.00000
3313.16,-0.00005
3309.3,0.00001
3305.45,-0.00007
3301.59,-0.00004
3297.73,0.00001
3293.88,0.00000
3290.02,-0.00001
3286.16,0.00004
3282.3,-0.00006
3278.45,-0.00003
3274.59,0.00007
3270.73,-0.00001
3266.88,-0.00006
3263.02,-0.00011
3259.16,-0.00008
3255.31,-0.00007
3251.45,-0.00000
3247.59,-0.00007
3243.73,-0.00012
3239.88,-0.00014
3236.02,-0.00011
3232.16,-0.00007
3228.31,0.00010
3224.45,0.00002
3220.59,0.00003
3216.74,-0.00001
3212.88,-0.00004
3209.02,-0.00004
3205.16,-0.00004
3201.31,-0.00004
3197.45,-0.00012
3193.59,-0.00006
3189.74,-0.00008
3185.88,-0.00009
3182.02,-0.00001
3178.17,-0.00004
3174.31,-0.00004
3170.45,0.00003
3166.59,0.00000
3162.74,-0.00001
3158.88,0.00008
3155.02,-0.00016
3151.17,-0.00016
3147.31,-0.00014
3143.45,-0.00009
3139.6,-0.00011
3135.74,-0.00005
3131.88,-0.00007
3128.02,-0.00005
3124.17,-0.00002
3120.31,0.00000
3116.45,0.00007
3112.6,0.00016
3108.74,0.00064
3104.88,0.00152
3101.03,0.00150
3097.17,0.00107
3093.31,0.00099
3089.45,0.00119
3085.6,0.00141
3081.74,0.00168
3077.88,0.00206
3074.03,0.00263
3070.17,0.00324
3066.31,0.00408
3062.46,0.00437
3058.6,0.00316
3054.74,0.00204
3050.88,0.00140
3047.03,0.00108
3043.17,0.00105
3039.31,0.00115
3035.46,0.00124
3031.6,0.00139
3027.74,0.00155
3023.89,0.00173
3020.03,0.00200
3016.17,0.00232
3012.31,0.00267
3008.46,0.00293
3004.6,0.00313
3000.74,0.00326
2996.89,0.00345
2993.03,0.00366
2989.17,0.00384
2985.32,0.00400
2981.46,0.00414
2977.6,0.00421
2973.74,0.00427
2969.89,0.00420
2966.03,0.00396
2962.17,0.00356
2958.32,0.00333
2954.46,0.00312
2950.6,0.00303
2946.75,0.00275
2942.89,0.00242
2939.03,0.00202
2935.17,0.00137
2931.32,0.00075
2927.46,0.00025
2923.6,0.00000
2919.75,0.00016
2915.89,0.00061
2912.03,0.00131
2908.18,0.00189
2904.32,0.00217
2900.46,0.00242
2896.6,0.00258
2892.75,0.00283
2888.89,0.00307
2885.03,0.00318
2881.18,0.00320
2877.32,0.00315
2873.46,0.00294
2869.61,0.00288
2865.75,0.00279
2861.89,0.00258
2858.03,0.00246
2854.18,0.00239
2850.32,0.00287
2846.46,0.00374
2842.61,0.00443
2838.75,0.00493
2834.89,0.00532
2831.04,0.00560
2827.18,0.00594
2823.32,0.00619
2819.46,0.00629
2815.61,0.00617
2811.75,0.00599
2807.89,0.00567
2804.04,0.00531
2800.18,0.00494
2796.32,0.00439
2792.47,0.00389
2788.61,0.00329
2784.75,0.00276
2780.89,0.00229
2777.04,0.00191
2773.18,0.00154
2769.32,0.00124
2765.47,0.00099
2761.61,0.00064
2757.75,0.00035
2753.9,0.00013
2750.04,-0.00008
2746.18,-0.00024
2742.32,-0.00021
2738.47,-0.00019
2734.61,-0.00016
2730.75,-0.00012
2726.9,-0.00004
2723.04,0.00002
2719.18,0.00010
2715.33,0.00006
2711.47,0.00001
2707.61,0.00000
2703.75,0.00009
2699.9,0.00043
2696.04,0.00095
2692.18,0.00166
2688.33,0.00251
2684.47,0.00346
2680.61,0.00453
2676.76,0.00549
2672.9,0.00621
2669.04,0.00667
2665.18,0.00688
2661.33,0.00685
2657.47,0.00657
2653.61,0.00623
2649.76,0.00579
2645.9,0.00531
2642.04,0.00482
2638.19,0.00430
2634.33,0.00388
2630.47,0.00346
2626.61,0.00310
2622.76,0.00283
2618.9,0.00259
2615.04,0.00234
2611.19,0.00220
2607.33,0.00209
2603.47,0.00200
2599.62,0.00206
2595.76,0.00217
2591.9,0.00217
2588.04,0.00215
2584.19,0.00219
2580.33,0.00257
2576.47,0.00316
2572.62,0.00415
2568.76,0.00536
2564.9,0.00666
2561.05,0.00801
2557.19,0.00894
2553.33,0.00952
2549.47,0.00992
2545.62,0.01006
2541.76,0.01012
2537.9,0.00980
2534.05,0.00938
2530.19,0.00892
2526.33,0.00823
2522.48,0.00764
2518.62,0.00701
2514.76,0.00634
2510.9,0.00573
2507.05,0.00509
2503.19,0.00452
2499.33,0.00399
2495.48,0.00344
2491.62,0.00307
2487.76,0.00256
2483.91,0.00229
2480.05,0.00197
2476.19,0.00166
2472.33,0.00135
2468.48,0.00122
2464.62,0.00107
2460.76,0.00086
2456.91,0.00066
2453.05,0.00057
2449.19,0.00034
2445.34,0.00022
2441.48,0.00016
2437.62,0.00013
2433.77,0.00007
2429.91,0.00005
2426.05,0.00005
2422.19,0.00005
2418.34,0.00000
2414.48,0.00004
2410.62,0.00002
2406.77,0.00005
2402.91,0.00009
2399.05,0.00013
2395.2,0.00006
2391.34,0.00005
2387.48,0.00008
2383.62,0.00002
2379.77,0.00003
2375.91,0.00019
2372.05,0.00029
2368.2,0.00037
2364.34,0.00050
2360.48,0.00044
2356.63,0.00034
2352.77,0.00015
2348.91,0.00000
2345.05,0.00024
2341.2,0.00041
2337.34,0.00048
2333.48,0.00044
2329.63,0.00044
2325.77,0.00040
2321.91,0.00043
2318.06,0.00035
2314.2,0.00028
2310.34,0.00028
2306.48,0.00027
2302.63,0.00039
2298.77,0.00036
2294.91,0.00041
2291.06,0.00046
2287.2,0.00045
2283.34,0.00044
2279.49,0.00039
2275.63,0.00022
2271.77,0.00014
2267.91,0.00009
2264.06,0.00016
2260.2,0.00011
2256.34,0.00005
2252.49,0.00000
2248.63,0.00005
2244.77,0.00009
2240.92,-0.00001
2237.06,0.00003
2233.2,0.00017
2229.34,0.00021
2225.49,0.00034
2221.63,0.00032
2217.77,0.00014
2213.92,0.00010
2210.06,0.00008
2206.2,0.00002
2202.35,0.00028
2198.49,0.00032
2194.63,0.00023
2190.77,0.00032
2186.92,0.00031
2183.06,0.00016
2179.2,0.00027
2175.35,0.00044
2171.49,0.00066
2167.63,0.00085
2163.78,0.00048
2159.92,0.00000
2156.06,0.00051
2152.2,0.00163
2148.35,0.00229
2144.49,0.00275
2140.63,0.00311
2136.78,0.00342
2132.92,0.00378
2129.06,0.00426
2125.21,0.00448
2121.35,0.00455
2117.49,0.00464
2113.63,0.00464
2109.78,0.00456
2105.92,0.00450
2102.06,0.00432
2098.21,0.00417
2094.35,0.00419
2090.49,0.00431
2086.64,0.00415
2082.78,0.00408
2078.92,0.00397
2075.06,0.00378
2071.21,0.00362
2067.35,0.00344
2063.49,0.00337
2059.64,0.00338
2055.78,0.00309
2051.92,0.00265
2048.07,0.00185
2044.21,0.00129
2040.35,0.00087
2036.49,0.00041
2032.64,0.00009
2028.78,0.00014
2024.92,0.00009
2021.07,0.00026
2017.21,0.00020
2013.35,0.00013
2009.5,0.00038
2005.64,0.00024
2001.78,0.00052
1997.92,0.00050
1994.07,0.00063
1990.21,0.00045
1986.35,0.00035
1982.5,0.00035
1978.64,0.00010
1974.78,0.00000
1970.93,0.00050
1967.07,0.00129
1963.21,0.00187
1959.35,0.00190
1955.5,0.00195
1951.64,0.00183
1947.78,0.00163
1943.93,0.00149
1940.07,0.00125
1936.21,0.00127
1932.36,0.00119
1928.5,0.00108
1924.64,0.00102
1920.78,0.00099
1916.93,0.00091
1913.07,0.00075
1909.21,0.00069
1905.36,0.00059
1901.5,0.00050
1897.64,0.00043
1893.79,0.00030
1889.93,0.00024
1886.07,0.00014
1882.21,0.00017
1878.36,0.00009
1874.5,0.00011
1870.64,0.00014
1866.79,0.00013
1862.93,0.00015
1859.07,0.00017
1855.22,0.00011
1851.36,0.00004
1847.5,0.00000
1843.64,0.00004
1839.79,0.00006
1835.93,0.00021
1832.07,0.00018
1828.22,0.00006
1824.36,-0.00002
1820.5,0.00004
1816.65,0.00017
1812.79,0.00046
1808.93,0.00083
1805.07,0.00117
1801.22,0.00156
1797.36,0.00193
1793.5,0.00220
1789.65,0.00240
1785.79,0.00258
1781.93,0.00260
1778.08,0.00260
1774.22,0.00262
1770.36,0.00266
1766.5,0.00285
1762.65,0.00317
1758.79,0.00374
1754.93,0.00460
1751.08,0.00586
1747.22,0.00768
1743.36,0.01087
1739.51,0.01537
1735.65,0.02112
1731.79,0.02879
1727.93,0.03809
1724.08,0.04800
1720.22,0.05813
1716.36,0.06654
1712.51,0.06973
1708.65,0.07303
1704.79,0.08066
1700.94,0.09194
1697.08,0.10594
1693.22,0.12166
1689.36,0.13576
1685.51,0.14306
1681.65,0.14877
1677.79,0.14965
1673.94,0.13139
1670.08,0.10508
1666.22,0.08132
1662.37,0.06320
1658.51,0.05034
1654.65,0.04158
1650.79,0.03543
1646.94,0.03080
1643.08,0.02667
1639.22,0.02319
1635.37,0.02050
1631.51,0.01824
1627.65,0.01650
1623.8,0.01512
1619.94,0.01412
1616.08,0.01392
1612.22,0.01397
1608.37,0.01289
1604.51,0.01080
1600.65,0.00852
1596.8,0.00659
1592.94,0.00547
1589.08,0.00497
1585.23,0.00575
1581.37,0.01012
1577.51,0.02107
1573.65,0.02454
1569.8,0.01440
1565.94,0.00783
1562.08,0.00485
1558.23,0.00315
1554.37,0.00192
1550.51,0.00116
1546.66,0.00080
1542.8,0.00075
1538.94,0.00063
1535.08,0.00023
1531.23,0.00000
1527.37,0.00002
1523.51,0.00028
1519.66,0.00078
1515.8,0.00336
1511.94,0.01814
1508.09,0.02423
1504.23,0.01345
1500.37,0.00482
1496.51,0.00124
1492.66,0.00021
1488.8,0.00003
1484.94,-0.00002
1481.09,0.00023
1477.23,0.00102
1473.37,0.00321
1469.52,0.00368
1465.66,0.00200
1461.8,0.00205
1457.94,0.00271
1454.09,0.00368
1450.23,0.00457
1446.37,0.00585
1442.52,0.00858
1438.66,0.01379
1434.8,0.02253
1430.95,0.03363
1427.09,0.04371
1423.23,0.04713
1419.37,0.04079
1415.52,0.03614
1411.66,0.03960
1407.8,0.03930
1403.95,0.02975
1400.09,0.01890
1396.23,0.01240
1392.38,0.00947
1388.52,0.00906
1384.66,0.00913
1380.8,0.00759
1376.95,0.00536
1373.09,0.00378
1369.23,0.00268
1365.38,0.00148
1361.52,0.00041
1357.66,0.00003
1353.81,0.00025
1349.95,0.00254
1346.09,0.01061
1342.23,0.02579
1338.38,0.03081
1334.52,0.02295
1330.66,0.01913
1326.81,0.01981
1322.95,0.02051
1319.09,0.02473
1315.24,0.02839
1311.38,0.02690
1307.52,0.03263
1303.66,0.04302
1299.81,0.05401
1295.95,0.06120
1292.09,0.06498
1288.24,0.06877
1284.38,0.07161
1280.52,0.07141
1276.67,0.06964
1272.81,0.06961
1268.95,0.07153
1265.09,0.07440
1261.24,0.07811
1257.38,0.08306
1253.52,0.08993
1249.67,0.09699
1245.81,0.10145
1241.95,0.10261
1238.1,0.10019
1234.24,0.09505
1230.38,0.08898
1226.52,0.08350
1222.67,0.07938
1218.81,0.07488
1214.95,0.06996
1211.1,0.06638
1207.24,0.06361
1203.38,0.06040
1199.53,0.05645
1195.67,0.05207
1191.81,0.04750
1187.95,0.04294
1184.1,0.03861
1180.24,0.03431
1176.38,0.02971
1172.53,0.02461
1168.67,0.01894
1164.81,0.01352
1160.96,0.00894
1157.1,0.00556
1153.24,0.00356
1149.39,0.00308
1145.53,0.00463
1141.67,0.01019
1137.81,0.02247
1133.96,0.03689
1130.1,0.05149
1126.24,0.06413
1122.39,0.07083
1118.53,0.07171
1114.67,0.07234
1110.82,0.07707
1106.96,0.08022
1103.1,0.08293
1099.24,0.08374
1095.39,0.08260
1091.53,0.08023
1087.67,0.07785
1083.82,0.07567
1079.96,0.07265
1076.1,0.06854
1072.25,0.06397
1068.39,0.05909
1064.53,0.05397
1060.67,0.04891
1056.82,0.04410
1052.96,0.03970
1049.1,0.03573
1045.25,0.03174
1041.39,0.02747
1037.53,0.02237
1033.68,0.01556
1029.82,0.00673
1025.96,0.00963
1022.1,0.04165
1018.25,0.06110
1014.39,0.05487
1010.53,0.04388
1006.68,0.03547
1002.82,0.02977
998.962,0.02564
995.105,0.02238
991.248,0.02010
987.391,0.02049
983.534,0.01830
979.677,0.01570
975.82,0.01663
971.963,0.02241
968.106,0.02765
964.249,0.02878
960.392,0.02879
956.535,0.02920
952.678,0.03035
948.821,0.03206
944.964,0.03375
941.107,0.03462
937.25,0.03423
933.393,0.03253
929.536,0.02974
925.679,0.02637
921.822,0.02280
917.965,0.01940
914.108,0.01630
910.251,0.01357
906.394,0.01128
902.537,0.00939
898.68,0.00770
894.823,0.00578
890.966,0.00395
887.109,0.00462
883.252,0.01280
879.395,0.02025
875.538,0.01771
871.681,0.02757
867.824,0.01434
863.967,0.00723
860.11,0.00559
856.253,0.00646
852.396,0.00751
848.539,0.01082
844.682,0.01308
840.825,0.01149
836.968,0.00945
833.111,0.00803
829.254,0.00700
825.397,0.00637
821.54,0.00515
817.683,0.00329
813.826,0.00180
809.969,0.00067
806.112,0.00000
802.255,0.00012
798.398,0.00098
794.541,0.00315
790.684,0.00564
786.827,0.01118
782.97,0.02261
779.113,0.02235
775.256,0.01630
771.399,0.01221
767.542,0.00975
763.685,0.00832
759.828,0.00754
755.971,0.00666
752.114,0.00533
748.257,0.00332
744.4,0.00082
740.543,0.00018
736.686,0.01296
732.829,0.04140
728.972,0.06559
725.115,0.08536
721.258,0.08755
717.401,0.07754
713.544,0.06766
709.687,0.05975
705.83,0.05277
701.973,0.04700
698.116,0.04194
694.259,0.03810
690.402,0.03515
686.545,0.03209
682.688,0.02904
678.831,0.02641
674.974,0.02419
671.117,0.02173
667.26,0.01871
663.403,0.01485
659.546,0.01090
655.689,0.00642
651.832,0.00205
649.904,0.00000