File: Exploratory-Data-Science/Model Testing of Backsheet Color and FTIR Data/FTIR/XENON1-FTIR/Arkema XENON 0HR PET 3.011-2.SPA.dpt
3999.71,0.00236
3995.85,0.00207
3991.99,0.00191
3988.13,0.00169
3984.28,0.00141
3980.42,0.00116
3976.56,0.00091
3972.71,0.00079
3968.85,0.00060
3964.99,0.00056
3961.14,0.00039
3957.28,0.00023
3953.42,0.00017
3949.56,0.00000
3945.71,-0.00016
3941.85,-0.00024
3937.99,-0.00031
3934.14,-0.00026
3930.28,-0.00035
3926.42,-0.00034
3922.57,-0.00029
3918.71,-0.00018
3914.85,-0.00024
3910.99,-0.00020
3907.14,-0.00017
3903.28,-0.00001
3899.42,0.00009
3895.57,-0.00010
3891.71,-0.00011
3887.85,-0.00033
3884,-0.00035
3880.14,-0.00038
3876.28,-0.00039
3872.42,-0.00046
3868.57,-0.00035
3864.71,-0.00038
3860.85,-0.00032
3857,-0.00035
3853.14,0.00002
3849.28,-0.00015
3845.43,0.00000
3841.57,-0.00016
3837.71,-0.00007
3833.85,-0.00031
3830,-0.00037
3826.14,-0.00040
3822.28,-0.00037
3818.43,-0.00038
3814.57,-0.00018
3810.71,-0.00028
3806.86,-0.00002
3803,-0.00008
3799.14,-0.00004
3795.28,0.00004
3791.43,-0.00007
3787.57,-0.00022
3783.71,-0.00025
3779.86,-0.00021
3776,-0.00020
3772.14,-0.00011
3768.29,-0.00016
3764.43,-0.00009
3760.57,0.00005
3756.72,0.00001
3752.86,0.00012
3749,0.00028
3745.14,0.00023
3741.29,0.00000
3737.43,-0.00010
3733.57,-0.00028
3729.72,-0.00052
3725.86,-0.00060
3722,-0.00064
3718.15,-0.00044
3714.29,-0.00031
3710.43,-0.00045
3706.57,-0.00056
3702.72,-0.00037
3698.86,-0.00022
3695,0.00000
3691.15,0.00023
3687.29,0.00048
3683.43,0.00023
3679.58,0.00005
3675.72,-0.00010
3671.86,-0.00027
3668,-0.00038
3664.15,-0.00050
3660.29,-0.00035
3656.43,-0.00025
3652.58,-0.00022
3648.72,0.00000
3644.86,-0.00022
3641.01,-0.00014
3637.15,0.00000
3633.29,-0.00011
3629.43,-0.00012
3625.58,-0.00033
3621.72,-0.00030
3617.86,-0.00020
3614.01,-0.00019
3610.15,-0.00028
3606.29,-0.00044
3602.44,-0.00049
3598.58,-0.00042
3594.72,-0.00038
3590.86,-0.00020
3587.01,0.00007
3583.15,-0.00001
3579.29,-0.00002
3575.44,0.00002
3571.58,0.00007
3567.72,0.00011
3563.87,0.00020
3560.01,0.00028
3556.15,0.00036
3552.29,0.00032
3548.44,0.00039
3544.58,0.00024
3540.72,0.00021
3536.87,0.00003
3533.01,0.00000
3529.15,-0.00004
3525.3,-0.00016
3521.44,-0.00012
3517.58,-0.00021
3513.72,-0.00032
3509.87,-0.00029
3506.01,-0.00021
3502.15,-0.00028
3498.3,-0.00016
3494.44,-0.00017
3490.58,-0.00010
3486.73,-0.00009
3482.87,0.00000
3479.01,0.00001
3475.15,0.00002
3471.3,-0.00011
3467.44,-0.00018
3463.58,-0.00011
3459.73,0.00000
3455.87,0.00020
3452.01,0.00040
3448.16,0.00070
3444.3,0.00118
3440.44,0.00182
3436.58,0.00284
3432.73,0.00424
3428.87,0.00465
3425.01,0.00350
3421.16,0.00234
3417.3,0.00140
3413.44,0.00072
3409.59,0.00038
3405.73,0.00008
3401.87,-0.00010
3398.01,-0.00019
3394.16,-0.00031
3390.3,-0.00015
3386.44,-0.00015
3382.59,0.00007
3378.73,0.00014
3374.87,0.00014
3371.02,0.00000
3367.16,-0.00014
3363.3,-0.00031
3359.44,-0.00027
3355.59,-0.00026
3351.73,-0.00017
3347.87,-0.00003
3344.02,0.00015
3340.16,0.00028
3336.3,0.00032
3332.45,0.00032
3328.59,0.00022
3324.73,0.00000
3320.87,-0.00020
3317.02,-0.00030
3313.16,-0.00034
3309.3,-0.00028
3305.45,-0.00020
3301.59,-0.00008
3297.73,-0.00005
3293.88,-0.00009
3290.02,-0.00015
3286.16,-0.00015
3282.3,-0.00006
3278.45,-0.00014
3274.59,-0.00006
3270.73,-0.00007
3266.88,-0.00023
3263.02,-0.00026
3259.16,-0.00028
3255.31,-0.00030
3251.45,-0.00036
3247.59,-0.00038
3243.73,-0.00028
3239.88,-0.00029
3236.02,-0.00017
3232.16,-0.00010
3228.31,-0.00006
3224.45,-0.00004
3220.59,0.00000
3216.74,-0.00024
3212.88,-0.00031
3209.02,-0.00037
3205.16,-0.00042
3201.31,-0.00043
3197.45,-0.00040
3193.59,-0.00033
3189.74,-0.00028
3185.88,-0.00023
3182.02,-0.00022
3178.17,-0.00023
3174.31,-0.00009
3170.45,-0.00006
3166.59,-0.00004
3162.74,-0.00020
3158.88,-0.00041
3155.02,-0.00043
3151.17,-0.00041
3147.31,-0.00044
3143.45,-0.00039
3139.6,-0.00036
3135.74,-0.00029
3131.88,0.00001
3128.02,0.00015
3124.17,0.00008
3120.31,-0.00010
3116.45,0.00003
3112.6,0.00017
3108.74,0.00057
3104.88,0.00091
3101.03,0.00112
3097.17,0.00060
3093.31,0.00019
3089.45,0.00036
3085.6,0.00077
3081.74,0.00123
3077.88,0.00126
3074.03,0.00131
3070.17,0.00175
3066.31,0.00181
3062.46,0.00183
3058.6,0.00253
3054.74,0.00344
3050.88,0.00284
3047.03,0.00142
3043.17,0.00049
3039.31,0.00005
3035.46,0.00005
3031.6,0.00014
3027.74,0.00023
3023.89,0.00058
3020.03,0.00159
3016.17,0.00330
3012.31,0.00380
3008.46,0.00335
3004.6,0.00310
3000.74,0.00308
2996.89,0.00325
2993.03,0.00364
2989.17,0.00440
2985.32,0.00588
2981.46,0.00809
2977.6,0.01142
2973.74,0.01610
2969.89,0.01983
2966.03,0.01904
2962.17,0.01682
2958.32,0.01491
2954.46,0.01292
2950.6,0.01067
2946.75,0.00834
2942.89,0.00618
2939.03,0.00481
2935.17,0.00429
2931.32,0.00416
2927.46,0.00390
2923.6,0.00302
2919.75,0.00125
2915.89,0.00092
2912.03,0.00585
2908.18,0.01059
2904.32,0.01023
2900.46,0.00705
2896.6,0.00519
2892.75,0.00449
2888.89,0.00430
2885.03,0.00406
2881.18,0.00359
2877.32,0.00332
2873.46,0.00329
2869.61,0.00341
2865.75,0.00361
2861.89,0.00381
2858.03,0.00406
2854.18,0.00359
2850.32,0.00083
2846.46,-0.00019
2842.61,0.00099
2838.75,0.00089
2834.89,0.00063
2831.04,0.00032
2827.18,0.00009
2823.32,0.00005
2819.46,0.00012
2815.61,0.00020
2811.75,0.00031
2807.89,0.00041
2804.04,0.00057
2800.18,0.00046
2796.32,0.00021
2792.47,0.00009
2788.61,-0.00006
2784.75,-0.00019
2780.89,-0.00026
2777.04,-0.00024
2773.18,-0.00028
2769.32,-0.00025
2765.47,-0.00019
2761.61,-0.00011
2757.75,-0.00004
2753.9,0.00005
2750.04,0.00010
2746.18,0.00016
2742.32,0.00013
2738.47,0.00002
2734.61,-0.00012
2730.75,-0.00020
2726.9,-0.00025
2723.04,-0.00029
2719.18,-0.00022
2715.33,-0.00019
2711.47,-0.00018
2707.61,-0.00013
2703.75,-0.00005
2699.9,0.00000
2696.04,-0.00009
2692.18,-0.00023
2688.33,-0.00029
2684.47,-0.00037
2680.61,-0.00040
2676.76,-0.00038
2672.9,-0.00032
2669.04,-0.00026
2665.18,-0.00018
2661.33,-0.00008
2657.47,-0.00005
2653.61,-0.00001
2649.76,0.00003
2645.9,0.00002
2642.04,0.00005
2638.19,0.00019
2634.33,0.00023
2630.47,0.00018
2626.61,0.00011
2622.76,-0.00001
2618.9,-0.00015
2615.04,-0.00013
2611.19,-0.00008
2607.33,-0.00004
2603.47,-0.00001
2599.62,0.00002
2595.76,0.00005
2591.9,0.00013
2588.04,0.00014
2584.19,0.00013
2580.33,-0.00002
2576.47,-0.00005
2572.62,-0.00009
2568.76,-0.00013
2564.9,-0.00004
2561.05,-0.00002
2557.19,-0.00004
2553.33,-0.00005
2549.47,0.00001
2545.62,0.00001
2541.76,0.00005
2537.9,0.00008
2534.05,0.00015
2530.19,0.00014
2526.33,0.00017
2522.48,0.00005
2518.62,0.00001
2514.76,-0.00005
2510.9,-0.00005
2507.05,0.00007
2503.19,0.00013
2499.33,0.00018
2495.48,0.00010
2491.62,0.00007
2487.76,0.00009
2483.91,0.00000
2480.05,-0.00001
2476.19,-0.00002
2472.33,0.00000
2468.48,0.00009
2464.62,0.00015
2460.76,0.00036
2456.91,0.00059
2453.05,0.00075
2449.19,0.00093
2445.34,0.00130
2441.48,0.00164
2437.62,0.00209
2433.77,0.00253
2429.91,0.00308
2426.05,0.00375
2422.19,0.00436
2418.34,0.00500
2414.48,0.00567
2410.62,0.00639
2406.77,0.00709
2402.91,0.00773
2399.05,0.00846
2395.2,0.00911
2391.34,0.00971
2387.48,0.01030
2383.62,0.01054
2379.77,0.00978
2375.91,0.00757
2372.05,0.00457
2368.2,0.00190
2364.34,0.00033
2360.48,-0.00000
2356.63,0.00069
2352.77,0.00385
2348.91,0.00764
2345.05,0.00356
2341.2,0.00141
2337.34,0.00122
2333.48,0.00134
2329.63,0.00150
2325.77,0.00234
2321.91,0.00306
2318.06,0.00397
2314.2,0.00484
2310.34,0.00568
2306.48,0.00626
2302.63,0.00668
2298.77,0.00694
2294.91,0.00709
2291.06,0.00731
2287.2,0.00727
2283.34,0.00698
2279.49,0.00641
2275.63,0.00598
2271.77,0.00569
2267.91,0.00532
2264.06,0.00496
2260.2,0.00462
2256.34,0.00408
2252.49,0.00379
2248.63,0.00346
2244.77,0.00294
2240.92,0.00254
2237.06,0.00223
2233.2,0.00210
2229.34,0.00208
2225.49,0.00180
2221.63,0.00165
2217.77,0.00151
2213.92,0.00134
2210.06,0.00125
2206.2,0.00118
2202.35,0.00081
2198.49,0.00071
2194.63,0.00033
2190.77,0.00030
2186.92,0.00028
2183.06,0.00000
2179.2,0.00032
2175.35,0.00073
2171.49,0.00079
2167.63,0.00087
2163.78,0.00071
2159.92,0.00000
2156.06,0.00120
2152.2,0.00332
2148.35,0.00451
2144.49,0.00548
2140.63,0.00629
2136.78,0.00708
2132.92,0.00788
2129.06,0.00867
2125.21,0.00941
2121.35,0.01002
2117.49,0.01032
2113.63,0.01045
2109.78,0.01023
2105.92,0.01017
2102.06,0.00990
2098.21,0.00960
2094.35,0.00952
2090.49,0.00925
2086.64,0.00893
2082.78,0.00844
2078.92,0.00796
2075.06,0.00740
2071.21,0.00683
2067.35,0.00617
2063.49,0.00577
2059.64,0.00540
2055.78,0.00494
2051.92,0.00409
2048.07,0.00262
2044.21,0.00160
2040.35,0.00111
2036.49,0.00043
2032.64,0.00000
2028.78,0.00004
2024.92,-0.00009
2021.07,0.00000
2017.21,0.00038
2013.35,0.00048
2009.5,0.00033
2005.64,0.00060
2001.78,0.00110
1997.92,0.00138
1994.07,0.00151
1990.21,0.00155
1986.35,0.00151
1982.5,0.00137
1978.64,0.00102
1974.78,0.00119
1970.93,0.00228
1967.07,0.00418
1963.21,0.00629
1959.35,0.00715
1955.5,0.00642
1951.64,0.00547
1947.78,0.00460
1943.93,0.00365
1940.07,0.00288
1936.21,0.00221
1932.36,0.00171
1928.5,0.00137
1924.64,0.00105
1920.78,0.00080
1916.93,0.00057
1913.07,0.00036
1909.21,0.00022
1905.36,0.00010
1901.5,0.00004
1897.64,-0.00003
1893.79,-0.00009
1889.93,-0.00006
1886.07,-0.00013
1882.21,-0.00022
1878.36,-0.00022
1874.5,-0.00023
1870.64,-0.00019
1866.79,-0.00008
1862.93,-0.00001
1859.07,-0.00008
1855.22,-0.00005
1851.36,0.00018
1847.5,0.00049
1843.64,0.00100
1839.79,0.00139
1835.93,0.00172
1832.07,0.00200
1828.22,0.00210
1824.36,0.00194
1820.5,0.00164
1816.65,0.00138
1812.79,0.00131
1808.93,0.00114
1805.07,0.00091
1801.22,0.00061
1797.36,0.00032
1793.5,0.00017
1789.65,0.00008
1785.79,0.00000
1781.93,-0.00009
1778.08,-0.00010
1774.22,0.00012
1770.36,0.00061
1766.5,0.00137
1762.65,0.00265
1758.79,0.00483
1754.93,0.00865
1751.08,0.01594
1747.22,0.03067
1743.36,0.05971
1739.51,0.10465
1735.65,0.16058
1731.79,0.22594
1727.93,0.29773
1724.08,0.37207
1720.22,0.44916
1716.36,0.52695
1712.51,0.56212
1708.65,0.49576
1704.79,0.38545
1700.94,0.28432
1697.08,0.21341
1693.22,0.16727
1689.36,0.13588
1685.51,0.12032
1681.65,0.11026
1677.79,0.09154
1673.94,0.07684
1670.08,0.06529
1666.22,0.05342
1662.37,0.04262
1658.51,0.03464
1654.65,0.02904
1650.79,0.02445
1646.94,0.02065
1643.08,0.01741
1639.22,0.01484
1635.37,0.01263
1631.51,0.01056
1627.65,0.00885
1623.8,0.00748
1619.94,0.00702
1616.08,0.00864
1612.22,0.00855
1608.37,0.00591
1604.51,0.00385
1600.65,0.00234
1596.8,0.00091
1592.94,0.00061
1589.08,0.00123
1585.23,0.00390
1581.37,0.01110
1577.51,0.01496
1573.65,0.00908
1569.8,0.00376
1565.94,0.00148
1562.08,0.00076
1558.23,0.00073
1554.37,0.00077
1550.51,0.00080
1546.66,0.00066
1542.8,0.00018
1538.94,-0.00006
1535.08,0.00062
1531.23,0.00191
1527.37,0.00335
1523.51,0.00390
1519.66,0.00305
1515.8,0.00343
1511.94,0.00837
1508.09,0.03176
1504.23,0.04797
1500.37,0.01740
1496.51,0.00329
1492.66,0.00016
1488.8,0.00024
1484.94,0.00227
1481.09,0.00622
1477.23,0.01281
1473.37,0.02659
1469.52,0.02862
1465.66,0.01642
1461.8,0.01586
1457.94,0.01830
1454.09,0.01926
1450.23,0.01729
1446.37,0.01441
1442.52,0.01233
1438.66,0.00982
1434.8,0.00591
1430.95,0.00180
1427.09,0.00000
1423.23,0.00160
1419.37,0.01039
1415.52,0.03922
1411.66,0.09199
1407.8,0.10494
1403.95,0.06503
1400.09,0.03436
1396.23,0.02073
1392.38,0.01689
1388.52,0.01948
1384.66,0.02034
1380.8,0.01552
1376.95,0.01326
1373.09,0.01447
1369.23,0.01480
1365.38,0.00879
1361.52,0.00182
1357.66,0.00000
1353.81,0.00314
1349.95,0.01556
1346.09,0.05399
1342.23,0.13233
1338.38,0.15847
1334.52,0.08242
1330.66,0.02132
1326.81,0.00322
1322.95,0.00080
1319.09,0.00270
1315.24,0.00636
1311.38,0.01169
1307.52,0.01932
1303.66,0.02886
1299.81,0.04342
1295.95,0.06303
1292.09,0.08370
1288.24,0.10383
1284.38,0.12513
1280.52,0.14968
1276.67,0.17761
1272.81,0.20906
1268.95,0.24524
1265.09,0.28194
1261.24,0.31090
1257.38,0.33051
1253.52,0.35446
1249.67,0.38830
1245.81,0.42028
1241.95,0.43722
1238.1,0.42735
1234.24,0.39426
1230.38,0.35857
1226.52,0.33112
1222.67,0.30665
1218.81,0.27038
1214.95,0.22896
1211.1,0.19581
1207.24,0.16760
1203.38,0.13857
1199.53,0.11027
1195.67,0.08450
1191.81,0.06303
1187.95,0.04702
1184.1,0.03672
1180.24,0.03175
1176.38,0.02933
1172.53,0.02276
1168.67,0.01011
1164.81,0.00143
1160.96,0.00000
1157.1,0.00139
1153.24,0.00569
1149.39,0.01346
1145.53,0.02590
1141.67,0.04638
1137.81,0.07971
1133.96,0.13038
1130.1,0.19030
1126.24,0.24324
1122.39,0.27916
1118.53,0.29270
1114.67,0.28371
1110.82,0.29156
1106.96,0.31316
1103.1,0.34299
1099.24,0.36665
1095.39,0.37085
1091.53,0.35566
1087.67,0.33225
1083.82,0.30783
1079.96,0.27795
1076.1,0.24248
1072.25,0.20973
1068.39,0.18191
1064.53,0.15799
1060.67,0.13791
1056.82,0.12258
1052.96,0.11333
1049.1,0.10893
1045.25,0.10523
1041.39,0.09723
1037.53,0.08341
1033.68,0.06606
1029.82,0.05031
1025.96,0.07993
1022.1,0.18158
1018.25,0.23323
1014.39,0.21393
1010.53,0.15341
1006.68,0.11476
1002.82,0.09163
998.962,0.07628
995.105,0.06498
991.248,0.06005
987.391,0.05869
983.534,0.05147
979.677,0.05298
975.82,0.06642
971.963,0.08948
968.106,0.09359
964.249,0.07899
960.392,0.06398
956.535,0.05208
952.678,0.04326
948.821,0.03664
944.964,0.03133
941.107,0.02694
937.25,0.02322
933.393,0.01997
929.536,0.01706
925.679,0.01440
921.822,0.01217
917.965,0.01057
914.108,0.00997
910.251,0.01103
906.394,0.01441
902.537,0.01894
898.68,0.02150
894.823,0.02061
890.966,0.01849
887.109,0.01882
883.252,0.02494
879.395,0.04061
875.538,0.07755
871.681,0.14262
867.824,0.07533
863.967,0.04126
860.11,0.03534
856.253,0.03989
852.396,0.04992
848.539,0.06292
844.682,0.06236
840.825,0.05180
836.968,0.04211
833.111,0.03395
829.254,0.02749
825.397,0.02286
821.54,0.01989
817.683,0.01828
813.826,0.01745
809.969,0.01706
806.112,0.01733
802.255,0.01803
798.398,0.01965
794.541,0.02961
790.684,0.03029
786.827,0.02224
782.97,0.01585
779.113,0.01213
775.256,0.00970
771.399,0.00768
767.542,0.00565
763.685,0.00366
759.828,0.00238
755.971,0.00146
752.114,0.00085
748.257,0.00000
744.4,0.00062
740.543,0.01359
736.686,0.06124
732.829,0.15457
728.972,0.27416
725.115,0.39697
721.258,0.38575
717.401,0.30658
713.544,0.23516
709.687,0.17945
705.83,0.13729
701.973,0.10769
698.116,0.08159
694.259,0.06215
690.402,0.04968
686.545,0.04146
682.688,0.03600
678.831,0.03215
674.974,0.02642
671.117,0.02076
667.26,0.01454
663.403,0.01251
659.546,0.00881
655.689,0.00529
651.832,0.00179
649.904,0.00000