File: Exploratory-Data-Science/Model Testing of Backsheet Color and FTIR Data/FTIR/XENON1-FTIR/Arkema XENON 0HR PET 3.018-2.SPA.dpt
3999.71,0.00342
3995.85,0.00297
3991.99,0.00268
3988.13,0.00238
3984.28,0.00200
3980.42,0.00166
3976.56,0.00143
3972.71,0.00125
3968.85,0.00095
3964.99,0.00076
3961.14,0.00059
3957.28,0.00034
3953.42,0.00020
3949.56,0.00000
3945.71,-0.00013
3941.85,-0.00019
3937.99,-0.00030
3934.14,-0.00033
3930.28,-0.00039
3926.42,-0.00039
3922.57,-0.00033
3918.71,-0.00030
3914.85,-0.00032
3910.99,-0.00023
3907.14,-0.00017
3903.28,0.00006
3899.42,0.00008
3895.57,-0.00016
3891.71,-0.00021
3887.85,-0.00049
3884,-0.00047
3880.14,-0.00044
3876.28,-0.00056
3872.42,-0.00059
3868.57,-0.00051
3864.71,-0.00051
3860.85,-0.00048
3857,-0.00042
3853.14,-0.00004
3849.28,-0.00021
3845.43,0.00000
3841.57,-0.00018
3837.71,-0.00008
3833.85,-0.00031
3830,-0.00055
3826.14,-0.00056
3822.28,-0.00050
3818.43,-0.00044
3814.57,-0.00033
3810.71,-0.00036
3806.86,-0.00006
3803,-0.00003
3799.14,-0.00007
3795.28,0.00001
3791.43,-0.00011
3787.57,-0.00031
3783.71,-0.00048
3779.86,-0.00047
3776,-0.00045
3772.14,-0.00048
3768.29,-0.00054
3764.43,-0.00043
3760.57,-0.00029
3756.72,-0.00040
3752.86,-0.00028
3749,-0.00020
3745.14,-0.00013
3741.29,0.00001
3737.43,0.00014
3733.57,0.00027
3729.72,0.00027
3725.86,-0.00003
3722,-0.00044
3718.15,-0.00104
3714.29,-0.00128
3710.43,-0.00103
3706.57,-0.00075
3702.72,-0.00044
3698.86,-0.00042
3695,-0.00016
3691.15,0.00016
3687.29,0.00033
3683.43,-0.00017
3679.58,-0.00051
3675.72,-0.00067
3671.86,-0.00119
3668,-0.00129
3664.15,-0.00129
3660.29,-0.00118
3656.43,-0.00089
3652.58,-0.00073
3648.72,-0.00046
3644.86,-0.00042
3641.01,-0.00012
3637.15,0.00015
3633.29,0.00026
3629.43,0.00042
3625.58,0.00030
3621.72,0.00016
3617.86,-0.00006
3614.01,-0.00062
3610.15,-0.00063
3606.29,-0.00051
3602.44,-0.00044
3598.58,-0.00034
3594.72,-0.00035
3590.86,-0.00024
3587.01,0.00003
3583.15,-0.00012
3579.29,-0.00003
3575.44,-0.00008
3571.58,-0.00001
3567.72,0.00009
3563.87,0.00014
3560.01,0.00021
3556.15,0.00029
3552.29,0.00035
3548.44,0.00043
3544.58,0.00034
3540.72,0.00030
3536.87,0.00012
3533.01,0.00000
3529.15,-0.00005
3525.3,-0.00026
3521.44,-0.00029
3517.58,-0.00047
3513.72,-0.00056
3509.87,-0.00055
3506.01,-0.00055
3502.15,-0.00054
3498.3,-0.00051
3494.44,-0.00044
3490.58,-0.00035
3486.73,-0.00018
3482.87,-0.00010
3479.01,-0.00009
3475.15,-0.00012
3471.3,-0.00027
3467.44,-0.00022
3463.58,-0.00011
3459.73,0.00013
3455.87,0.00043
3452.01,0.00091
3448.16,0.00154
3444.3,0.00235
3440.44,0.00343
3436.58,0.00520
3432.73,0.00764
3428.87,0.00811
3425.01,0.00608
3421.16,0.00398
3417.3,0.00233
3413.44,0.00120
3409.59,0.00057
3405.73,-0.00004
3401.87,-0.00032
3398.01,-0.00052
3394.16,-0.00063
3390.3,-0.00054
3386.44,-0.00042
3382.59,-0.00017
3378.73,0.00000
3374.87,0.00006
3371.02,-0.00011
3367.16,-0.00027
3363.3,-0.00048
3359.44,-0.00043
3355.59,-0.00038
3351.73,-0.00033
3347.87,0.00000
3344.02,0.00024
3340.16,0.00043
3336.3,0.00059
3332.45,0.00046
3328.59,0.00022
3324.73,0.00000
3320.87,-0.00027
3317.02,-0.00041
3313.16,-0.00042
3309.3,-0.00041
3305.45,-0.00026
3301.59,-0.00015
3297.73,-0.00010
3293.88,-0.00009
3290.02,-0.00024
3286.16,-0.00026
3282.3,-0.00019
3278.45,-0.00022
3274.59,-0.00009
3270.73,-0.00010
3266.88,-0.00028
3263.02,-0.00033
3259.16,-0.00046
3255.31,-0.00048
3251.45,-0.00047
3247.59,-0.00046
3243.73,-0.00038
3239.88,-0.00036
3236.02,-0.00021
3232.16,-0.00011
3228.31,-0.00005
3224.45,-0.00007
3220.59,0.00000
3216.74,-0.00026
3212.88,-0.00042
3209.02,-0.00047
3205.16,-0.00052
3201.31,-0.00054
3197.45,-0.00043
3193.59,-0.00043
3189.74,-0.00032
3185.88,-0.00034
3182.02,-0.00032
3178.17,-0.00026
3174.31,-0.00014
3170.45,-0.00006
3166.59,-0.00005
3162.74,-0.00024
3158.88,-0.00051
3155.02,-0.00065
3151.17,-0.00061
3147.31,-0.00065
3143.45,-0.00058
3139.6,-0.00052
3135.74,-0.00030
3131.88,0.00011
3128.02,0.00031
3124.17,0.00021
3120.31,0.00000
3116.45,0.00017
3112.6,0.00044
3108.74,0.00097
3104.88,0.00162
3101.03,0.00172
3097.17,0.00093
3093.31,0.00030
3089.45,0.00051
3085.6,0.00125
3081.74,0.00191
3077.88,0.00202
3074.03,0.00208
3070.17,0.00256
3066.31,0.00272
3062.46,0.00271
3058.6,0.00371
3054.74,0.00497
3050.88,0.00383
3047.03,0.00173
3043.17,0.00032
3039.31,-0.00028
3035.46,-0.00022
3031.6,-0.00006
3027.74,0.00012
3023.89,0.00086
3020.03,0.00267
3016.17,0.00542
3012.31,0.00609
3008.46,0.00550
3004.6,0.00532
3000.74,0.00544
2996.89,0.00587
2993.03,0.00658
2989.17,0.00789
2985.32,0.01021
2981.46,0.01370
2977.6,0.01876
2973.74,0.02580
2969.89,0.03092
2966.03,0.02906
2962.17,0.02524
2958.32,0.02208
2954.46,0.01876
2950.6,0.01504
2946.75,0.01143
2942.89,0.00834
2939.03,0.00629
2935.17,0.00532
2931.32,0.00478
2927.46,0.00412
2923.6,0.00291
2919.75,0.00125
2915.89,0.00161
2912.03,0.00826
2908.18,0.01462
2904.32,0.01379
2900.46,0.00921
2896.6,0.00672
2892.75,0.00590
2888.89,0.00580
2885.03,0.00543
2881.18,0.00480
2877.32,0.00442
2873.46,0.00441
2869.61,0.00460
2865.75,0.00483
2861.89,0.00512
2858.03,0.00534
2854.18,0.00459
2850.32,0.00135
2846.46,0.00013
2842.61,0.00126
2838.75,0.00116
2834.89,0.00084
2831.04,0.00064
2827.18,0.00053
2823.32,0.00061
2819.46,0.00072
2815.61,0.00085
2811.75,0.00093
2807.89,0.00107
2804.04,0.00121
2800.18,0.00105
2796.32,0.00069
2792.47,0.00048
2788.61,0.00022
2784.75,0.00004
2780.89,-0.00003
2777.04,-0.00011
2773.18,-0.00008
2769.32,-0.00003
2765.47,0.00005
2761.61,0.00013
2757.75,0.00021
2753.9,0.00031
2750.04,0.00042
2746.18,0.00049
2742.32,0.00045
2738.47,0.00033
2734.61,0.00007
2730.75,-0.00006
2726.9,-0.00013
2723.04,-0.00015
2719.18,-0.00009
2715.33,-0.00006
2711.47,-0.00004
2707.61,0.00005
2703.75,0.00016
2699.9,0.00021
2696.04,0.00009
2692.18,-0.00006
2688.33,-0.00021
2684.47,-0.00027
2680.61,-0.00030
2676.76,-0.00027
2672.9,-0.00023
2669.04,-0.00015
2665.18,-0.00008
2661.33,-0.00002
2657.47,0.00001
2653.61,0.00009
2649.76,0.00011
2645.9,0.00012
2642.04,0.00014
2638.19,0.00031
2634.33,0.00043
2630.47,0.00035
2626.61,0.00017
2622.76,0.00002
2618.9,-0.00012
2615.04,-0.00018
2611.19,-0.00016
2607.33,-0.00015
2603.47,-0.00008
2599.62,-0.00005
2595.76,0.00000
2591.9,0.00002
2588.04,0.00008
2584.19,0.00017
2580.33,-0.00003
2576.47,-0.00012
2572.62,-0.00019
2568.76,-0.00021
2564.9,-0.00009
2561.05,-0.00011
2557.19,-0.00007
2553.33,-0.00000
2549.47,0.00003
2545.62,0.00008
2541.76,0.00020
2537.9,0.00023
2534.05,0.00026
2530.19,0.00028
2526.33,0.00017
2522.48,0.00002
2518.62,-0.00011
2514.76,-0.00018
2510.9,-0.00014
2507.05,-0.00007
2503.19,0.00006
2499.33,0.00014
2495.48,0.00004
2491.62,0.00003
2487.76,-0.00004
2483.91,-0.00020
2480.05,-0.00021
2476.19,-0.00022
2472.33,-0.00018
2468.48,-0.00012
2464.62,-0.00013
2460.76,-0.00011
2456.91,-0.00008
2453.05,-0.00002
2449.19,-0.00003
2445.34,0.00001
2441.48,-0.00001
2437.62,0.00002
2433.77,-0.00001
2429.91,-0.00001
2426.05,0.00001
2422.19,0.00005
2418.34,0.00015
2414.48,0.00019
2410.62,0.00032
2406.77,0.00047
2402.91,0.00055
2399.05,0.00071
2395.2,0.00077
2391.34,0.00083
2387.48,0.00092
2383.62,0.00164
2379.77,0.00382
2375.91,0.00837
2372.05,0.01428
2368.2,0.01923
2364.34,0.02205
2360.48,0.02241
2356.63,0.02006
2352.77,0.01332
2348.91,0.00562
2345.05,0.01211
2341.2,0.01525
2337.34,0.01536
2333.48,0.01461
2329.63,0.01343
2325.77,0.01138
2321.91,0.00943
2318.06,0.00643
2314.2,0.00402
2310.34,0.00227
2306.48,0.00104
2302.63,0.00045
2298.77,0.00033
2294.91,0.00047
2291.06,0.00060
2287.2,0.00064
2283.34,0.00045
2279.49,0.00034
2275.63,0.00030
2271.77,0.00029
2267.91,0.00035
2264.06,0.00035
2260.2,0.00027
2256.34,0.00013
2252.49,0.00004
2248.63,0.00004
2244.77,-0.00003
2240.92,-0.00003
2237.06,-0.00005
2233.2,-0.00006
2229.34,0.00006
2225.49,0.00004
2221.63,-0.00002
2217.77,0.00002
2213.92,-0.00003
2210.06,0.00005
2206.2,0.00012
2202.35,-0.00008
2198.49,-0.00007
2194.63,-0.00015
2190.77,-0.00016
2186.92,-0.00022
2183.06,-0.00022
2179.2,-0.00006
2175.35,0.00027
2171.49,0.00055
2167.63,0.00085
2163.78,0.00075
2159.92,0.00000
2156.06,0.00091
2152.2,0.00313
2148.35,0.00428
2144.49,0.00526
2140.63,0.00609
2136.78,0.00693
2132.92,0.00766
2129.06,0.00871
2125.21,0.00960
2121.35,0.01030
2117.49,0.01075
2113.63,0.01095
2109.78,0.01072
2105.92,0.01054
2102.06,0.01043
2098.21,0.01007
2094.35,0.00991
2090.49,0.00962
2086.64,0.00923
2082.78,0.00867
2078.92,0.00817
2075.06,0.00755
2071.21,0.00694
2067.35,0.00631
2063.49,0.00588
2059.64,0.00541
2055.78,0.00473
2051.92,0.00386
2048.07,0.00237
2044.21,0.00135
2040.35,0.00083
2036.49,0.00035
2032.64,0.00000
2028.78,-0.00002
2024.92,-0.00013
2021.07,0.00000
2017.21,0.00026
2013.35,0.00033
2009.5,0.00032
2005.64,0.00075
2001.78,0.00110
1997.92,0.00135
1994.07,0.00176
1990.21,0.00186
1986.35,0.00196
1982.5,0.00186
1978.64,0.00155
1974.78,0.00187
1970.93,0.00347
1967.07,0.00574
1963.21,0.00874
1959.35,0.00967
1955.5,0.00833
1951.64,0.00692
1947.78,0.00561
1943.93,0.00434
1940.07,0.00330
1936.21,0.00243
1932.36,0.00176
1928.5,0.00123
1924.64,0.00080
1920.78,0.00058
1916.93,0.00037
1913.07,0.00014
1909.21,0.00000
1905.36,-0.00010
1901.5,-0.00018
1897.64,-0.00026
1893.79,-0.00031
1889.93,-0.00031
1886.07,-0.00044
1882.21,-0.00050
1878.36,-0.00051
1874.5,-0.00051
1870.64,-0.00035
1866.79,-0.00014
1862.93,0.00000
1859.07,-0.00010
1855.22,-0.00012
1851.36,0.00019
1847.5,0.00061
1843.64,0.00120
1839.79,0.00167
1835.93,0.00210
1832.07,0.00249
1828.22,0.00270
1824.36,0.00257
1820.5,0.00227
1816.65,0.00195
1812.79,0.00184
1808.93,0.00162
1805.07,0.00129
1801.22,0.00087
1797.36,0.00052
1793.5,0.00028
1789.65,0.00017
1785.79,0.00006
1781.93,-0.00005
1778.08,-0.00004
1774.22,0.00027
1770.36,0.00096
1766.5,0.00203
1762.65,0.00381
1758.79,0.00675
1754.93,0.01188
1751.08,0.02160
1747.22,0.04136
1743.36,0.07990
1739.51,0.13887
1735.65,0.21156
1731.79,0.29674
1727.93,0.39335
1724.08,0.50015
1720.22,0.62381
1716.36,0.76179
1712.51,0.80456
1708.65,0.68047
1704.79,0.51777
1700.94,0.37761
1697.08,0.28065
1693.22,0.21840
1689.36,0.17667
1685.51,0.15711
1681.65,0.14421
1677.79,0.11853
1673.94,0.09889
1670.08,0.08346
1666.22,0.06740
1662.37,0.05286
1658.51,0.04231
1654.65,0.03497
1650.79,0.02913
1646.94,0.02434
1643.08,0.02032
1639.22,0.01710
1635.37,0.01438
1631.51,0.01192
1627.65,0.00997
1623.8,0.00843
1619.94,0.00816
1616.08,0.01062
1612.22,0.01065
1608.37,0.00727
1604.51,0.00469
1600.65,0.00284
1596.8,0.00114
1592.94,0.00094
1589.08,0.00195
1585.23,0.00554
1581.37,0.01490
1577.51,0.01960
1573.65,0.01169
1569.8,0.00480
1565.94,0.00188
1562.08,0.00088
1558.23,0.00069
1554.37,0.00063
1550.51,0.00067
1546.66,0.00052
1542.8,0.00012
1538.94,-0.00008
1535.08,0.00070
1531.23,0.00232
1527.37,0.00423
1523.51,0.00487
1519.66,0.00362
1515.8,0.00408
1511.94,0.01066
1508.09,0.04149
1504.23,0.06157
1500.37,0.02186
1496.51,0.00400
1492.66,0.00018
1488.8,0.00039
1484.94,0.00329
1481.09,0.00884
1477.23,0.01799
1473.37,0.03727
1469.52,0.04010
1465.66,0.02240
1461.8,0.02130
1457.94,0.02441
1454.09,0.02573
1450.23,0.02315
1446.37,0.01931
1442.52,0.01650
1438.66,0.01306
1434.8,0.00776
1430.95,0.00233
1427.09,0.00000
1423.23,0.00230
1419.37,0.01435
1415.52,0.05353
1411.66,0.12469
1407.8,0.14079
1403.95,0.08613
1400.09,0.04533
1396.23,0.02734
1392.38,0.02221
1388.52,0.02533
1384.66,0.02597
1380.8,0.01972
1376.95,0.01707
1373.09,0.01903
1369.23,0.01957
1365.38,0.01147
1361.52,0.00230
1357.66,0.00000
1353.81,0.00429
1349.95,0.02085
1346.09,0.07153
1342.23,0.17132
1338.38,0.19484
1334.52,0.09668
1330.66,0.02453
1326.81,0.00375
1322.95,0.00156
1319.09,0.00456
1315.24,0.00968
1311.38,0.01694
1307.52,0.02716
1303.66,0.03982
1299.81,0.05888
1295.95,0.08456
1292.09,0.11175
1288.24,0.13852
1284.38,0.16721
1280.52,0.20042
1276.67,0.23817
1272.81,0.28069
1268.95,0.33029
1265.09,0.38295
1261.24,0.42730
1257.38,0.45781
1253.52,0.49158
1249.67,0.53605
1245.81,0.57382
1241.95,0.58370
1238.1,0.54833
1234.24,0.48137
1230.38,0.42025
1226.52,0.37918
1222.67,0.34497
1218.81,0.29546
1214.95,0.24370
1211.1,0.20462
1207.24,0.17222
1203.38,0.13972
1199.53,0.10891
1195.67,0.08146
1191.81,0.05929
1187.95,0.04360
1184.1,0.03447
1180.24,0.03149
1176.38,0.03088
1172.53,0.02447
1168.67,0.01027
1164.81,0.00100
1160.96,-0.00001
1157.1,0.00251
1153.24,0.00868
1149.39,0.01938
1145.53,0.03619
1141.67,0.06343
1137.81,0.10747
1133.96,0.17411
1130.1,0.25229
1126.24,0.31953
1122.39,0.36236
1118.53,0.37533
1114.67,0.36254
1110.82,0.37253
1106.96,0.39988
1103.1,0.44056
1099.24,0.47167
1095.39,0.47261
1091.53,0.44350
1087.67,0.40287
1083.82,0.36138
1079.96,0.31362
1076.1,0.26238
1072.25,0.21955
1068.39,0.18545
1064.53,0.15767
1060.67,0.13565
1056.82,0.12018
1052.96,0.11266
1049.1,0.11076
1045.25,0.10879
1041.39,0.10074
1037.53,0.08573
1033.68,0.06775
1029.82,0.05381
1025.96,0.09580
1022.1,0.21583
1018.25,0.27336
1014.39,0.23274
1010.53,0.15107
1006.68,0.10603
1002.82,0.08116
998.962,0.06536
995.105,0.05413
991.248,0.05077
987.391,0.05015
983.534,0.04331
979.677,0.04730
975.82,0.06476
971.963,0.09065
968.106,0.09107
964.249,0.07190
960.392,0.05434
956.535,0.04119
952.678,0.03173
948.821,0.02479
944.964,0.01940
941.107,0.01505
937.25,0.01143
933.393,0.00837
929.536,0.00563
925.679,0.00316
921.822,0.00118
917.965,0.00000
914.108,0.00005
910.251,0.00204
906.394,0.00672
902.537,0.01256
898.68,0.01588
894.823,0.01509
890.966,0.01298
887.109,0.01413
883.252,0.02265
879.395,0.04275
875.538,0.08886
871.681,0.17250
867.824,0.08658
863.967,0.04372
860.11,0.03675
856.253,0.04233
852.396,0.05409
848.539,0.06845
844.682,0.06587
840.825,0.05253
836.968,0.04101
833.111,0.03159
829.254,0.02430
825.397,0.01924
821.54,0.01618
817.683,0.01472
813.826,0.01416
809.969,0.01416
806.112,0.01496
802.255,0.01625
798.398,0.01885
794.541,0.03090
790.684,0.03120
786.827,0.02177
782.97,0.01456
779.113,0.01063
775.256,0.00821
771.399,0.00638
767.542,0.00455
763.685,0.00280
759.828,0.00193
755.971,0.00153
752.114,0.00158
748.257,0.00017
744.4,0.00120
740.543,0.01657
736.686,0.07007
732.829,0.17320
728.972,0.30809
725.115,0.45760
721.258,0.44693
717.401,0.35664
713.544,0.27812
709.687,0.21224
705.83,0.16112
701.973,0.12541
698.116,0.09401
694.259,0.07112
690.402,0.05681
686.545,0.04760
682.688,0.04150
678.831,0.03706
674.974,0.03027
671.117,0.02412
667.26,0.02159
663.403,0.01406
659.546,0.01003
655.689,0.00602
651.832,0.00206
649.904,0.00000