File: Exploratory-Data-Science/Model Testing of Backsheet Color and FTIR Data/FTIR/XENON1-FTIR/Arkema XENON 3800HR PET 3.024-2.SPA.dpt
3999.71,0.00097
3995.85,0.00076
3991.99,0.00076
3988.13,0.00062
3984.28,0.00061
3980.42,0.00043
3976.56,0.00038
3972.71,0.00032
3968.85,0.00028
3964.99,0.00026
3961.14,0.00007
3957.28,0.00005
3953.42,0.00004
3949.56,0.00000
3945.71,-0.00002
3941.85,-0.00009
3937.99,-0.00015
3934.14,-0.00019
3930.28,-0.00018
3926.42,-0.00015
3922.57,-0.00013
3918.71,-0.00013
3914.85,-0.00016
3910.99,-0.00014
3907.14,-0.00017
3903.28,-0.00008
3899.42,0.00003
3895.57,-0.00002
3891.71,-0.00003
3887.85,-0.00001
3884,-0.00010
3880.14,-0.00015
3876.28,-0.00015
3872.42,-0.00010
3868.57,-0.00014
3864.71,-0.00016
3860.85,-0.00013
3857,-0.00007
3853.14,0.00021
3849.28,0.00000
3845.43,0.00000
3841.57,0.00000
3837.71,0.00013
3833.85,-0.00006
3830,-0.00009
3826.14,-0.00006
3822.28,-0.00005
3818.43,-0.00006
3814.57,-0.00006
3810.71,-0.00013
3806.86,-0.00008
3803,-0.00009
3799.14,-0.00004
3795.28,-0.00002
3791.43,-0.00011
3787.57,-0.00020
3783.71,-0.00008
3779.86,-0.00003
3776,-0.00015
3772.14,-0.00024
3768.29,-0.00024
3764.43,-0.00023
3760.57,-0.00026
3756.72,-0.00017
3752.86,-0.00017
3749,-0.00006
3745.14,-0.00003
3741.29,0.00000
3737.43,0.00001
3733.57,0.00014
3729.72,0.00009
3725.86,-0.00002
3722,-0.00011
3718.15,-0.00023
3714.29,-0.00027
3710.43,-0.00007
3706.57,-0.00020
3702.72,-0.00002
3698.86,-0.00005
3695,-0.00007
3691.15,-0.00001
3687.29,-0.00012
3683.43,-0.00023
3679.58,-0.00036
3675.72,-0.00016
3671.86,-0.00030
3668,-0.00035
3664.15,-0.00048
3660.29,-0.00042
3656.43,-0.00029
3652.58,-0.00035
3648.72,-0.00020
3644.86,-0.00016
3641.01,-0.00005
3637.15,0.00000
3633.29,0.00006
3629.43,0.00028
3625.58,0.00020
3621.72,0.00006
3617.86,0.00006
3614.01,-0.00018
3610.15,-0.00007
3606.29,-0.00008
3602.44,-0.00001
3598.58,-0.00010
3594.72,0.00003
3590.86,-0.00000
3587.01,0.00007
3583.15,-0.00002
3579.29,0.00007
3575.44,-0.00007
3571.58,-0.00009
3567.72,-0.00003
3563.87,-0.00013
3560.01,-0.00004
3556.15,-0.00016
3552.29,0.00001
3548.44,-0.00003
3544.58,-0.00010
3540.72,0.00007
3536.87,0.00006
3533.01,0.00000
3529.15,0.00010
3525.3,0.00007
3521.44,0.00008
3517.58,0.00001
3513.72,0.00002
3509.87,-0.00001
3506.01,-0.00001
3502.15,-0.00003
3498.3,0.00001
3494.44,-0.00002
3490.58,0.00008
3486.73,0.00003
3482.87,0.00007
3479.01,-0.00005
3475.15,0.00002
3471.3,0.00001
3467.44,0.00003
3463.58,0.00004
3459.73,-0.00004
3455.87,-0.00006
3452.01,0.00005
3448.16,0.00004
3444.3,0.00003
3440.44,0.00005
3436.58,0.00004
3432.73,0.00014
3428.87,0.00019
3425.01,0.00009
3421.16,-0.00001
3417.3,-0.00012
3413.44,-0.00009
3409.59,-0.00007
3405.73,-0.00011
3401.87,-0.00016
3398.01,-0.00011
3394.16,-0.00013
3390.3,-0.00014
3386.44,-0.00013
3382.59,-0.00010
3378.73,-0.00001
3374.87,0.00000
3371.02,-0.00009
3367.16,-0.00020
3363.3,-0.00028
3359.44,-0.00032
3355.59,-0.00037
3351.73,-0.00032
3347.87,-0.00029
3344.02,-0.00028
3340.16,-0.00011
3336.3,-0.00014
3332.45,-0.00002
3328.59,-0.00002
3324.73,0.00004
3320.87,-0.00003
3317.02,-0.00000
3313.16,-0.00004
3309.3,0.00005
3305.45,-0.00007
3301.59,-0.00005
3297.73,0.00000
3293.88,0.00004
3290.02,-0.00003
3286.16,-0.00001
3282.3,-0.00002
3278.45,0.00001
3274.59,0.00005
3270.73,-0.00009
3266.88,-0.00008
3263.02,-0.00015
3259.16,-0.00014
3255.31,-0.00008
3251.45,-0.00006
3247.59,-0.00014
3243.73,-0.00011
3239.88,-0.00016
3236.02,-0.00007
3232.16,-0.00013
3228.31,-0.00000
3224.45,-0.00003
3220.59,0.00000
3216.74,0.00001
3212.88,-0.00009
3209.02,-0.00007
3205.16,-0.00007
3201.31,-0.00012
3197.45,-0.00013
3193.59,-0.00004
3189.74,-0.00007
3185.88,-0.00012
3182.02,0.00002
3178.17,0.00003
3174.31,-0.00003
3170.45,0.00001
3166.59,-0.00002
3162.74,-0.00009
3158.88,0.00002
3155.02,-0.00017
3151.17,-0.00018
3147.31,-0.00018
3143.45,-0.00006
3139.6,-0.00014
3135.74,-0.00004
3131.88,-0.00000
3128.02,0.00005
3124.17,0.00004
3120.31,0.00000
3116.45,0.00011
3112.6,0.00036
3108.74,0.00107
3104.88,0.00224
3101.03,0.00218
3097.17,0.00168
3093.31,0.00163
3089.45,0.00190
3085.6,0.00231
3081.74,0.00270
3077.88,0.00334
3074.03,0.00406
3070.17,0.00497
3066.31,0.00608
3062.46,0.00657
3058.6,0.00501
3054.74,0.00340
3050.88,0.00252
3047.03,0.00203
3043.17,0.00199
3039.31,0.00200
3035.46,0.00211
3031.6,0.00241
3027.74,0.00271
3023.89,0.00295
3020.03,0.00338
3016.17,0.00399
3012.31,0.00445
3008.46,0.00481
3004.6,0.00512
3000.74,0.00533
2996.89,0.00558
2993.03,0.00594
2989.17,0.00627
2985.32,0.00648
2981.46,0.00674
2977.6,0.00688
2973.74,0.00709
2969.89,0.00725
2966.03,0.00683
2962.17,0.00634
2958.32,0.00595
2954.46,0.00567
2950.6,0.00541
2946.75,0.00510
2942.89,0.00458
2939.03,0.00402
2935.17,0.00326
2931.32,0.00255
2927.46,0.00200
2923.6,0.00149
2919.75,0.00148
2915.89,0.00172
2912.03,0.00262
2908.18,0.00365
2904.32,0.00417
2900.46,0.00447
2896.6,0.00470
2892.75,0.00500
2888.89,0.00535
2885.03,0.00557
2881.18,0.00565
2877.32,0.00558
2873.46,0.00541
2869.61,0.00536
2865.75,0.00523
2861.89,0.00511
2858.03,0.00507
2854.18,0.00507
2850.32,0.00541
2846.46,0.00628
2842.61,0.00734
2838.75,0.00802
2834.89,0.00856
2831.04,0.00904
2827.18,0.00949
2823.32,0.00984
2819.46,0.01001
2815.61,0.00987
2811.75,0.00954
2807.89,0.00906
2804.04,0.00849
2800.18,0.00787
2796.32,0.00709
2792.47,0.00624
2788.61,0.00536
2784.75,0.00458
2780.89,0.00379
2777.04,0.00317
2773.18,0.00255
2769.32,0.00209
2765.47,0.00164
2761.61,0.00111
2757.75,0.00061
2753.9,0.00023
2750.04,-0.00006
2746.18,-0.00028
2742.32,-0.00031
2738.47,-0.00028
2734.61,-0.00023
2730.75,-0.00019
2726.9,-0.00011
2723.04,-0.00001
2719.18,0.00013
2715.33,0.00009
2711.47,0.00000
2707.61,0.00000
2703.75,0.00019
2699.9,0.00071
2696.04,0.00153
2692.18,0.00260
2688.33,0.00389
2684.47,0.00531
2680.61,0.00690
2676.76,0.00837
2672.9,0.00946
2669.04,0.01025
2665.18,0.01063
2661.33,0.01062
2657.47,0.01037
2653.61,0.00988
2649.76,0.00923
2645.9,0.00854
2642.04,0.00779
2638.19,0.00708
2634.33,0.00647
2630.47,0.00591
2626.61,0.00537
2622.76,0.00494
2618.9,0.00460
2615.04,0.00431
2611.19,0.00413
2607.33,0.00394
2603.47,0.00387
2599.62,0.00393
2595.76,0.00413
2591.9,0.00417
2588.04,0.00418
2584.19,0.00436
2580.33,0.00488
2576.47,0.00582
2572.62,0.00727
2568.76,0.00902
2564.9,0.01095
2561.05,0.01283
2557.19,0.01426
2553.33,0.01527
2549.47,0.01586
2545.62,0.01607
2541.76,0.01613
2537.9,0.01574
2534.05,0.01514
2530.19,0.01440
2526.33,0.01351
2522.48,0.01257
2518.62,0.01155
2514.76,0.01047
2510.9,0.00952
2507.05,0.00862
2503.19,0.00767
2499.33,0.00686
2495.48,0.00603
2491.62,0.00536
2487.76,0.00472
2483.91,0.00420
2480.05,0.00365
2476.19,0.00317
2472.33,0.00268
2468.48,0.00242
2464.62,0.00217
2460.76,0.00178
2456.91,0.00156
2453.05,0.00134
2449.19,0.00101
2445.34,0.00075
2441.48,0.00058
2437.62,0.00042
2433.77,0.00026
2429.91,0.00012
2426.05,0.00015
2422.19,0.00006
2418.34,-0.00001
2414.48,-0.00003
2410.62,-0.00006
2406.77,-0.00003
2402.91,0.00005
2399.05,0.00009
2395.2,0.00005
2391.34,0.00000
2387.48,0.00001
2383.62,0.00010
2379.77,0.00069
2375.91,0.00194
2372.05,0.00361
2368.2,0.00499
2364.34,0.00589
2360.48,0.00604
2356.63,0.00539
2352.77,0.00342
2348.91,0.00137
2345.05,0.00334
2341.2,0.00438
2337.34,0.00450
2333.48,0.00429
2329.63,0.00403
2325.77,0.00347
2321.91,0.00304
2318.06,0.00232
2314.2,0.00165
2310.34,0.00116
2306.48,0.00086
2302.63,0.00078
2298.77,0.00069
2294.91,0.00066
2291.06,0.00063
2287.2,0.00057
2283.34,0.00056
2279.49,0.00045
2275.63,0.00036
2271.77,0.00023
2267.91,0.00013
2264.06,0.00025
2260.2,0.00013
2256.34,0.00007
2252.49,-0.00000
2248.63,0.00005
2244.77,0.00000
2240.92,0.00003
2237.06,0.00006
2233.2,0.00007
2229.34,0.00006
2225.49,0.00011
2221.63,0.00007
2217.77,0.00004
2213.92,0.00014
2210.06,0.00000
2206.2,0.00011
2202.35,0.00015
2198.49,0.00022
2194.63,0.00016
2190.77,0.00019
2186.92,0.00036
2183.06,0.00028
2179.2,0.00011
2175.35,0.00027
2171.49,0.00066
2167.63,0.00097
2163.78,0.00057
2159.92,0.00001
2156.06,0.00061
2152.2,0.00206
2148.35,0.00283
2144.49,0.00364
2140.63,0.00413
2136.78,0.00454
2132.92,0.00498
2129.06,0.00566
2125.21,0.00588
2121.35,0.00608
2117.49,0.00607
2113.63,0.00610
2109.78,0.00601
2105.92,0.00591
2102.06,0.00578
2098.21,0.00560
2094.35,0.00552
2090.49,0.00548
2086.64,0.00534
2082.78,0.00517
2078.92,0.00498
2075.06,0.00467
2071.21,0.00456
2067.35,0.00440
2063.49,0.00431
2059.64,0.00409
2055.78,0.00375
2051.92,0.00321
2048.07,0.00219
2044.21,0.00146
2040.35,0.00089
2036.49,0.00033
2032.64,0.00002
2028.78,0.00000
2024.92,0.00001
2021.07,0.00009
2017.21,0.00005
2013.35,0.00002
2009.5,0.00014
2005.64,0.00005
2001.78,0.00038
1997.92,0.00058
1994.07,0.00052
1990.21,0.00058
1986.35,0.00033
1982.5,0.00026
1978.64,0.00000
1974.78,-0.00012
1970.93,0.00065
1967.07,0.00169
1963.21,0.00231
1959.35,0.00259
1955.5,0.00251
1951.64,0.00229
1947.78,0.00195
1943.93,0.00175
1940.07,0.00153
1936.21,0.00153
1932.36,0.00124
1928.5,0.00114
1924.64,0.00109
1920.78,0.00111
1916.93,0.00101
1913.07,0.00085
1909.21,0.00074
1905.36,0.00061
1901.5,0.00043
1897.64,0.00034
1893.79,0.00021
1889.93,0.00015
1886.07,0.00008
1882.21,0.00011
1878.36,0.00004
1874.5,0.00003
1870.64,0.00008
1866.79,0.00013
1862.93,0.00012
1859.07,0.00018
1855.22,0.00010
1851.36,0.00002
1847.5,-0.00000
1843.64,0.00014
1839.79,0.00034
1835.93,0.00055
1832.07,0.00062
1828.22,0.00055
1824.36,0.00060
1820.5,0.00078
1816.65,0.00115
1812.79,0.00169
1808.93,0.00235
1805.07,0.00303
1801.22,0.00369
1797.36,0.00439
1793.5,0.00493
1789.65,0.00534
1785.79,0.00571
1781.93,0.00589
1778.08,0.00601
1774.22,0.00616
1770.36,0.00638
1766.5,0.00679
1762.65,0.00746
1758.79,0.00849
1754.93,0.01002
1751.08,0.01206
1747.22,0.01506
1743.36,0.02007
1739.51,0.02706
1735.65,0.03589
1731.79,0.04762
1727.93,0.06179
1724.08,0.07676
1720.22,0.09162
1716.36,0.10272
1712.51,0.10476
1708.65,0.10691
1704.79,0.11569
1700.94,0.12998
1697.08,0.14849
1693.22,0.16993
1689.36,0.18960
1685.51,0.19989
1681.65,0.20768
1677.79,0.20818
1673.94,0.18154
1670.08,0.14378
1666.22,0.11029
1662.37,0.08520
1658.51,0.06765
1654.65,0.05580
1650.79,0.04755
1646.94,0.04133
1643.08,0.03586
1639.22,0.03128
1635.37,0.02766
1631.51,0.02472
1627.65,0.02244
1623.8,0.02062
1619.94,0.01936
1616.08,0.01915
1612.22,0.01924
1608.37,0.01765
1604.51,0.01476
1600.65,0.01165
1596.8,0.00901
1592.94,0.00753
1589.08,0.00686
1585.23,0.00797
1581.37,0.01395
1577.51,0.02837
1573.65,0.03271
1569.8,0.01898
1565.94,0.01021
1562.08,0.00630
1558.23,0.00401
1554.37,0.00246
1550.51,0.00143
1546.66,0.00085
1542.8,0.00062
1538.94,0.00041
1535.08,0.00011
1531.23,0.00000
1527.37,0.00012
1523.51,0.00054
1519.66,0.00126
1515.8,0.00479
1511.94,0.02418
1508.09,0.03302
1504.23,0.01883
1500.37,0.00670
1496.51,0.00176
1492.66,0.00034
1488.8,0.00006
1484.94,-0.00003
1481.09,0.00028
1477.23,0.00138
1473.37,0.00442
1469.52,0.00503
1465.66,0.00272
1461.8,0.00281
1457.94,0.00375
1454.09,0.00510
1450.23,0.00632
1446.37,0.00802
1442.52,0.01156
1438.66,0.01817
1434.8,0.02904
1430.95,0.04307
1427.09,0.05639
1423.23,0.06152
1419.37,0.05396
1415.52,0.04860
1411.66,0.05398
1407.8,0.05335
1403.95,0.04002
1400.09,0.02539
1396.23,0.01666
1392.38,0.01280
1388.52,0.01231
1384.66,0.01240
1380.8,0.01023
1376.95,0.00726
1373.09,0.00516
1369.23,0.00367
1365.38,0.00199
1361.52,0.00051
1357.66,0.00000
1353.81,0.00048
1349.95,0.00385
1346.09,0.01534
1342.23,0.03651
1338.38,0.04267
1334.52,0.03072
1330.66,0.02485
1326.81,0.02559
1322.95,0.02677
1319.09,0.03227
1315.24,0.03741
1311.38,0.03579
1307.52,0.04260
1303.66,0.05541
1299.81,0.06956
1295.95,0.07967
1292.09,0.08551
1288.24,0.09097
1284.38,0.09548
1280.52,0.09693
1276.67,0.09670
1272.81,0.09833
1268.95,0.10196
1265.09,0.10634
1261.24,0.11141
1257.38,0.11794
1253.52,0.12694
1249.67,0.13603
1245.81,0.14138
1241.95,0.14196
1238.1,0.13762
1234.24,0.12976
1230.38,0.12095
1226.52,0.11318
1222.67,0.10734
1218.81,0.10090
1214.95,0.09387
1211.1,0.08876
1207.24,0.08475
1203.38,0.08017
1199.53,0.07468
1195.67,0.06869
1191.81,0.06253
1187.95,0.05641
1184.1,0.05068
1180.24,0.04504
1176.38,0.03905
1172.53,0.03241
1168.67,0.02508
1164.81,0.01817
1160.96,0.01245
1157.1,0.00826
1153.24,0.00584
1149.39,0.00534
1145.53,0.00750
1141.67,0.01488
1137.81,0.03099
1133.96,0.05095
1130.1,0.07126
1126.24,0.08808
1122.39,0.09644
1118.53,0.09682
1114.67,0.09672
1110.82,0.10303
1106.96,0.10709
1103.1,0.11005
1099.24,0.11022
1095.39,0.10773
1091.53,0.10369
1087.67,0.09990
1083.82,0.09646
1079.96,0.09192
1076.1,0.08608
1072.25,0.07978
1068.39,0.07323
1064.53,0.06645
1060.67,0.05983
1056.82,0.05366
1052.96,0.04809
1049.1,0.04317
1045.25,0.03837
1041.39,0.03319
1037.53,0.02692
1033.68,0.01860
1029.82,0.00821
1025.96,0.01348
1022.1,0.05436
1018.25,0.07864
1014.39,0.06944
1010.53,0.05463
1006.68,0.04375
1002.82,0.03655
998.962,0.03141
995.105,0.02745
991.248,0.02476
987.391,0.02529
983.534,0.02261
979.677,0.01981
975.82,0.02144
971.963,0.02894
968.106,0.03526
964.249,0.03626
960.392,0.03597
956.535,0.03627
952.678,0.03747
948.821,0.03933
944.964,0.04112
941.107,0.04196
937.25,0.04135
933.393,0.03919
929.536,0.03576
925.679,0.03160
921.822,0.02719
917.965,0.02301
914.108,0.01917
910.251,0.01586
906.394,0.01306
902.537,0.01079
898.68,0.00877
894.823,0.00647
890.966,0.00430
887.109,0.00550
883.252,0.01549
879.395,0.02435
875.538,0.02230
871.681,0.03561
867.824,0.01798
863.967,0.00881
860.11,0.00679
856.253,0.00785
852.396,0.00911
848.539,0.01307
844.682,0.01543
840.825,0.01298
836.968,0.01015
833.111,0.00819
829.254,0.00673
825.397,0.00581
821.54,0.00550
817.683,0.00342
813.826,0.00181
809.969,0.00062
806.112,0.00001
802.255,0.00041
798.398,0.00160
794.541,0.00441
790.684,0.00738
786.827,0.01371
782.97,0.02699
779.113,0.02688
775.256,0.01962
771.399,0.01461
767.542,0.01168
763.685,0.00986
759.828,0.00877
755.971,0.00760
752.114,0.00589
748.257,0.00345
744.4,0.00071
740.543,0.00063
736.686,0.01696
732.829,0.05152
728.972,0.08193
725.115,0.10689
721.258,0.10868
717.401,0.09557
713.544,0.08285
709.687,0.07254
705.83,0.06363
701.973,0.05641
698.116,0.05012
694.259,0.04548
690.402,0.04186
686.545,0.03807
682.688,0.03448
678.831,0.03141
674.974,0.02876
671.117,0.02593
667.26,0.02302
663.403,0.01766
659.546,0.01292
655.689,0.00762
651.832,0.00245
649.904,0.00000