File: Exploratory-Data-Science/Model Testing of Backsheet Color and FTIR Data/FTIR/XENON1-FTIR/Arkema XENON 0HR PET 3.018-1.SPA.dpt
3999.71,0.00110
3995.85,0.00097
3991.99,0.00093
3988.13,0.00080
3984.28,0.00069
3980.42,0.00054
3976.56,0.00043
3972.71,0.00034
3968.85,0.00030
3964.99,0.00020
3961.14,0.00020
3957.28,0.00015
3953.42,0.00021
3949.56,0.00000
3945.71,-0.00009
3941.85,-0.00005
3937.99,-0.00009
3934.14,-0.00006
3930.28,-0.00019
3926.42,-0.00019
3922.57,-0.00012
3918.71,-0.00003
3914.85,-0.00011
3910.99,0.00004
3907.14,-0.00004
3903.28,0.00005
3899.42,0.00009
3895.57,-0.00006
3891.71,0.00001
3887.85,-0.00010
3884,-0.00020
3880.14,-0.00019
3876.28,-0.00017
3872.42,-0.00019
3868.57,-0.00012
3864.71,-0.00009
3860.85,-0.00010
3857,-0.00014
3853.14,0.00003
3849.28,-0.00006
3845.43,0.00000
3841.57,-0.00010
3837.71,-0.00005
3833.85,-0.00010
3830,-0.00019
3826.14,-0.00027
3822.28,-0.00021
3818.43,-0.00026
3814.57,-0.00018
3810.71,-0.00013
3806.86,-0.00004
3803,-0.00009
3799.14,0.00002
3795.28,0.00003
3791.43,-0.00007
3787.57,-0.00027
3783.71,-0.00014
3779.86,-0.00014
3776,-0.00012
3772.14,-0.00008
3768.29,-0.00011
3764.43,-0.00008
3760.57,-0.00003
3756.72,-0.00004
3752.86,-0.00003
3749,0.00008
3745.14,0.00002
3741.29,0.00010
3737.43,0.00006
3733.57,-0.00010
3729.72,-0.00007
3725.86,-0.00013
3722,-0.00023
3718.15,-0.00020
3714.29,-0.00021
3710.43,-0.00027
3706.57,-0.00015
3702.72,-0.00002
3698.86,0.00000
3695,0.00011
3691.15,0.00021
3687.29,0.00032
3683.43,0.00014
3679.58,0.00007
3675.72,-0.00007
3671.86,-0.00022
3668,-0.00034
3664.15,-0.00027
3660.29,-0.00021
3656.43,-0.00014
3652.58,-0.00013
3648.72,0.00003
3644.86,-0.00008
3641.01,-0.00000
3637.15,0.00008
3633.29,0.00011
3629.43,0.00012
3625.58,0.00009
3621.72,0.00004
3617.86,0.00005
3614.01,-0.00008
3610.15,-0.00013
3606.29,-0.00016
3602.44,-0.00011
3598.58,-0.00014
3594.72,-0.00022
3590.86,-0.00012
3587.01,0.00011
3583.15,-0.00003
3579.29,0.00001
3575.44,0.00001
3571.58,0.00002
3567.72,0.00010
3563.87,0.00009
3560.01,0.00014
3556.15,0.00023
3552.29,0.00028
3548.44,0.00037
3544.58,0.00024
3540.72,0.00029
3536.87,0.00021
3533.01,0.00015
3529.15,0.00012
3525.3,0.00009
3521.44,0.00011
3517.58,0.00003
3513.72,-0.00003
3509.87,-0.00017
3506.01,-0.00006
3502.15,-0.00015
3498.3,-0.00004
3494.44,-0.00005
3490.58,-0.00003
3486.73,0.00002
3482.87,-0.00001
3479.01,-0.00004
3475.15,0.00004
3471.3,-0.00003
3467.44,-0.00015
3463.58,-0.00002
3459.73,-0.00001
3455.87,0.00000
3452.01,0.00022
3448.16,0.00040
3444.3,0.00071
3440.44,0.00107
3436.58,0.00180
3432.73,0.00262
3428.87,0.00287
3425.01,0.00211
3421.16,0.00141
3417.3,0.00082
3413.44,0.00046
3409.59,0.00023
3405.73,0.00008
3401.87,-0.00006
3398.01,-0.00019
3394.16,-0.00021
3390.3,-0.00013
3386.44,-0.00013
3382.59,-0.00004
3378.73,0.00004
3374.87,0.00001
3371.02,-0.00005
3367.16,-0.00011
3363.3,-0.00024
3359.44,-0.00026
3355.59,-0.00020
3351.73,-0.00015
3347.87,-0.00006
3344.02,0.00007
3340.16,0.00012
3336.3,0.00018
3332.45,0.00014
3328.59,0.00011
3324.73,0.00000
3320.87,-0.00011
3317.02,-0.00023
3313.16,-0.00019
3309.3,-0.00020
3305.45,-0.00007
3301.59,-0.00001
3297.73,-0.00003
3293.88,0.00004
3290.02,-0.00006
3286.16,0.00001
3282.3,-0.00000
3278.45,-0.00003
3274.59,-0.00001
3270.73,-0.00003
3266.88,-0.00009
3263.02,-0.00002
3259.16,-0.00010
3255.31,-0.00011
3251.45,-0.00011
3247.59,-0.00014
3243.73,-0.00012
3239.88,-0.00012
3236.02,-0.00008
3232.16,0.00000
3228.31,-0.00001
3224.45,-0.00002
3220.59,0.00000
3216.74,-0.00015
3212.88,-0.00014
3209.02,-0.00016
3205.16,-0.00013
3201.31,-0.00013
3197.45,-0.00017
3193.59,-0.00015
3189.74,-0.00010
3185.88,-0.00011
3182.02,-0.00007
3178.17,-0.00010
3174.31,0.00001
3170.45,-0.00003
3166.59,-0.00002
3162.74,-0.00004
3158.88,-0.00021
3155.02,-0.00021
3151.17,-0.00017
3147.31,-0.00019
3143.45,-0.00021
3139.6,-0.00016
3135.74,-0.00009
3131.88,0.00003
3128.02,0.00016
3124.17,0.00008
3120.31,0.00000
3116.45,0.00006
3112.6,0.00012
3108.74,0.00036
3104.88,0.00060
3101.03,0.00068
3097.17,0.00037
3093.31,0.00014
3089.45,0.00026
3085.6,0.00053
3081.74,0.00077
3077.88,0.00083
3074.03,0.00083
3070.17,0.00105
3066.31,0.00112
3062.46,0.00114
3058.6,0.00149
3054.74,0.00193
3050.88,0.00159
3047.03,0.00081
3043.17,0.00031
3039.31,-0.00006
3035.46,-0.00005
3031.6,0.00000
3027.74,0.00014
3023.89,0.00051
3020.03,0.00129
3016.17,0.00240
3012.31,0.00279
3008.46,0.00272
3004.6,0.00280
3000.74,0.00296
2996.89,0.00326
2993.03,0.00356
2989.17,0.00414
2985.32,0.00506
2981.46,0.00638
2977.6,0.00837
2973.74,0.01097
2969.89,0.01305
2966.03,0.01262
2962.17,0.01140
2958.32,0.01035
2954.46,0.00940
2950.6,0.00825
2946.75,0.00718
2942.89,0.00607
2939.03,0.00531
2935.17,0.00489
2931.32,0.00452
2927.46,0.00386
2923.6,0.00263
2919.75,0.00076
2915.89,0.00024
2912.03,0.00447
2908.18,0.00802
2904.32,0.00822
2900.46,0.00663
2896.6,0.00582
2892.75,0.00549
2888.89,0.00544
2885.03,0.00532
2881.18,0.00509
2877.32,0.00487
2873.46,0.00478
2869.61,0.00481
2865.75,0.00473
2861.89,0.00463
2858.03,0.00440
2854.18,0.00352
2850.32,0.00085
2846.46,0.00051
2842.61,0.00226
2838.75,0.00237
2834.89,0.00208
2831.04,0.00177
2827.18,0.00146
2823.32,0.00124
2819.46,0.00111
2815.61,0.00109
2811.75,0.00108
2807.89,0.00105
2804.04,0.00111
2800.18,0.00100
2796.32,0.00081
2792.47,0.00070
2788.61,0.00055
2784.75,0.00038
2780.89,0.00029
2777.04,0.00023
2773.18,0.00013
2769.32,0.00010
2765.47,0.00006
2761.61,0.00003
2757.75,0.00002
2753.9,0.00000
2750.04,0.00005
2746.18,0.00010
2742.32,0.00007
2738.47,0.00007
2734.61,-0.00003
2730.75,-0.00008
2726.9,-0.00012
2723.04,-0.00009
2719.18,-0.00007
2715.33,-0.00006
2711.47,-0.00005
2707.61,-0.00000
2703.75,0.00005
2699.9,0.00003
2696.04,-0.00002
2692.18,-0.00008
2688.33,-0.00015
2684.47,-0.00019
2680.61,-0.00020
2676.76,-0.00016
2672.9,-0.00015
2669.04,-0.00012
2665.18,-0.00007
2661.33,-0.00001
2657.47,-0.00001
2653.61,0.00002
2649.76,0.00002
2645.9,0.00001
2642.04,0.00002
2638.19,0.00010
2634.33,0.00012
2630.47,0.00012
2626.61,0.00007
2622.76,-0.00003
2618.9,-0.00002
2615.04,-0.00008
2611.19,-0.00005
2607.33,-0.00003
2603.47,0.00000
2599.62,0.00000
2595.76,0.00004
2591.9,0.00004
2588.04,0.00006
2584.19,0.00004
2580.33,-0.00006
2576.47,-0.00008
2572.62,-0.00009
2568.76,-0.00010
2564.9,0.00000
2561.05,-0.00000
2557.19,-0.00002
2553.33,-0.00000
2549.47,0.00001
2545.62,0.00001
2541.76,0.00003
2537.9,0.00006
2534.05,0.00010
2530.19,0.00011
2526.33,0.00017
2522.48,0.00008
2518.62,0.00002
2514.76,-0.00005
2510.9,-0.00001
2507.05,-0.00002
2503.19,0.00005
2499.33,0.00008
2495.48,0.00000
2491.62,0.00002
2487.76,-0.00005
2483.91,-0.00004
2480.05,-0.00005
2476.19,-0.00008
2472.33,-0.00009
2468.48,-0.00005
2464.62,-0.00006
2460.76,-0.00002
2456.91,0.00002
2453.05,0.00002
2449.19,-0.00002
2445.34,0.00007
2441.48,0.00000
2437.62,0.00007
2433.77,0.00002
2429.91,0.00007
2426.05,0.00021
2422.19,0.00033
2418.34,0.00047
2414.48,0.00057
2410.62,0.00074
2406.77,0.00089
2402.91,0.00104
2399.05,0.00121
2395.2,0.00137
2391.34,0.00150
2387.48,0.00157
2383.62,0.00162
2379.77,0.00150
2375.91,0.00127
2372.05,0.00096
2368.2,0.00063
2364.34,0.00041
2360.48,0.00025
2356.63,0.00030
2352.77,0.00056
2348.91,0.00089
2345.05,0.00055
2341.2,0.00042
2337.34,0.00057
2333.48,0.00068
2329.63,0.00061
2325.77,0.00072
2321.91,0.00077
2318.06,0.00071
2314.2,0.00076
2310.34,0.00089
2306.48,0.00097
2302.63,0.00117
2298.77,0.00127
2294.91,0.00140
2291.06,0.00160
2287.2,0.00166
2283.34,0.00156
2279.49,0.00130
2275.63,0.00118
2271.77,0.00104
2267.91,0.00100
2264.06,0.00085
2260.2,0.00074
2256.34,0.00055
2252.49,0.00038
2248.63,0.00036
2244.77,0.00033
2240.92,0.00011
2237.06,0.00003
2233.2,0.00010
2229.34,0.00018
2225.49,0.00012
2221.63,0.00010
2217.77,0.00012
2213.92,0.00012
2210.06,0.00028
2206.2,0.00021
2202.35,0.00004
2198.49,0.00022
2194.63,0.00017
2190.77,0.00021
2186.92,0.00009
2183.06,0.00004
2179.2,0.00031
2175.35,0.00062
2171.49,0.00056
2167.63,0.00072
2163.78,0.00064
2159.92,0.00001
2156.06,0.00059
2152.2,0.00227
2148.35,0.00314
2144.49,0.00386
2140.63,0.00430
2136.78,0.00480
2132.92,0.00528
2129.06,0.00587
2125.21,0.00645
2121.35,0.00691
2117.49,0.00712
2113.63,0.00726
2109.78,0.00705
2105.92,0.00700
2102.06,0.00694
2098.21,0.00674
2094.35,0.00668
2090.49,0.00652
2086.64,0.00633
2082.78,0.00610
2078.92,0.00578
2075.06,0.00543
2071.21,0.00505
2067.35,0.00460
2063.49,0.00442
2059.64,0.00406
2055.78,0.00375
2051.92,0.00319
2048.07,0.00220
2044.21,0.00142
2040.35,0.00096
2036.49,0.00041
2032.64,0.00001
2028.78,0.00002
2024.92,-0.00004
2021.07,0.00000
2017.21,0.00031
2013.35,0.00051
2009.5,0.00045
2005.64,0.00073
2001.78,0.00093
1997.92,0.00124
1994.07,0.00144
1990.21,0.00153
1986.35,0.00146
1982.5,0.00142
1978.64,0.00116
1974.78,0.00107
1970.93,0.00183
1967.07,0.00297
1963.21,0.00437
1959.35,0.00495
1955.5,0.00440
1951.64,0.00376
1947.78,0.00324
1943.93,0.00272
1940.07,0.00221
1936.21,0.00185
1932.36,0.00157
1928.5,0.00125
1924.64,0.00104
1920.78,0.00098
1916.93,0.00069
1913.07,0.00056
1909.21,0.00049
1905.36,0.00034
1901.5,0.00025
1897.64,0.00018
1893.79,0.00010
1889.93,0.00010
1886.07,0.00000
1882.21,-0.00000
1878.36,-0.00004
1874.5,-0.00004
1870.64,-0.00003
1866.79,-0.00001
1862.93,0.00005
1859.07,0.00000
1855.22,0.00004
1851.36,0.00019
1847.5,0.00034
1843.64,0.00063
1839.79,0.00086
1835.93,0.00100
1832.07,0.00117
1828.22,0.00124
1824.36,0.00117
1820.5,0.00100
1816.65,0.00084
1812.79,0.00083
1808.93,0.00072
1805.07,0.00054
1801.22,0.00036
1797.36,0.00019
1793.5,0.00008
1789.65,0.00003
1785.79,-0.00002
1781.93,-0.00006
1778.08,-0.00005
1774.22,0.00009
1770.36,0.00036
1766.5,0.00077
1762.65,0.00145
1758.79,0.00261
1754.93,0.00460
1751.08,0.00836
1747.22,0.01602
1743.36,0.03089
1739.51,0.05315
1735.65,0.07952
1731.79,0.10857
1727.93,0.13873
1724.08,0.16849
1720.22,0.19907
1716.36,0.23392
1712.51,0.25917
1708.65,0.24464
1704.79,0.20788
1700.94,0.16675
1697.08,0.13254
1693.22,0.10771
1689.36,0.08935
1685.51,0.07941
1681.65,0.07365
1677.79,0.06288
1673.94,0.05396
1670.08,0.04686
1666.22,0.03948
1662.37,0.03251
1658.51,0.02723
1654.65,0.02342
1650.79,0.02029
1646.94,0.01757
1643.08,0.01527
1639.22,0.01338
1635.37,0.01170
1631.51,0.01018
1627.65,0.00887
1623.8,0.00775
1619.94,0.00719
1616.08,0.00790
1612.22,0.00766
1608.37,0.00591
1604.51,0.00447
1600.65,0.00338
1596.8,0.00233
1592.94,0.00200
1589.08,0.00221
1585.23,0.00357
1581.37,0.00757
1577.51,0.00980
1573.65,0.00648
1569.8,0.00340
1565.94,0.00204
1562.08,0.00156
1558.23,0.00147
1554.37,0.00146
1550.51,0.00138
1546.66,0.00104
1542.8,0.00036
1538.94,0.00000
1535.08,0.00062
1531.23,0.00158
1527.37,0.00249
1523.51,0.00278
1519.66,0.00216
1515.8,0.00221
1511.94,0.00493
1508.09,0.01820
1504.23,0.02763
1500.37,0.01043
1496.51,0.00208
1492.66,0.00012
1488.8,0.00014
1484.94,0.00135
1481.09,0.00368
1477.23,0.00756
1473.37,0.01568
1469.52,0.01707
1465.66,0.00947
1461.8,0.00896
1457.94,0.01034
1454.09,0.01097
1450.23,0.00993
1446.37,0.00832
1442.52,0.00713
1438.66,0.00568
1434.8,0.00345
1430.95,0.00107
1427.09,0.00000
1423.23,0.00092
1419.37,0.00593
1415.52,0.02222
1411.66,0.05118
1407.8,0.05890
1403.95,0.03775
1400.09,0.02036
1396.23,0.01238
1392.38,0.01012
1388.52,0.01150
1384.66,0.01186
1380.8,0.00904
1376.95,0.00768
1373.09,0.00839
1369.23,0.00858
1365.38,0.00511
1361.52,0.00109
1357.66,0.00000
1353.81,0.00173
1349.95,0.00866
1346.09,0.02970
1342.23,0.07023
1338.38,0.08288
1334.52,0.04453
1330.66,0.01190
1326.81,0.00187
1322.95,0.00047
1319.09,0.00147
1315.24,0.00344
1311.38,0.00631
1307.52,0.01043
1303.66,0.01557
1299.81,0.02332
1295.95,0.03362
1292.09,0.04427
1288.24,0.05450
1284.38,0.06517
1280.52,0.07718
1276.67,0.09038
1272.81,0.10467
1268.95,0.12029
1265.09,0.13548
1261.24,0.14749
1257.38,0.15599
1253.52,0.16627
1249.67,0.18069
1245.81,0.19535
1241.95,0.20591
1238.1,0.20750
1234.24,0.19906
1230.38,0.18683
1226.52,0.17556
1222.67,0.16481
1218.81,0.14892
1214.95,0.12989
1211.1,0.11380
1207.24,0.09973
1203.38,0.08490
1199.53,0.06965
1195.67,0.05496
1191.81,0.04199
1187.95,0.03184
1184.1,0.02489
1180.24,0.02117
1176.38,0.01917
1172.53,0.01497
1168.67,0.00707
1164.81,0.00138
1160.96,0.00000
1157.1,0.00052
1153.24,0.00280
1149.39,0.00706
1145.53,0.01392
1141.67,0.02514
1137.81,0.04304
1133.96,0.06915
1130.1,0.09833
1126.24,0.12299
1122.39,0.13946
1118.53,0.14590
1114.67,0.14220
1110.82,0.14638
1106.96,0.15574
1103.1,0.16838
1099.24,0.17952
1095.39,0.18426
1091.53,0.18172
1087.67,0.17523
1083.82,0.16761
1079.96,0.15691
1076.1,0.14220
1072.25,0.12725
1068.39,0.11375
1064.53,0.10154
1060.67,0.09074
1056.82,0.08192
1052.96,0.07606
1049.1,0.07274
1045.25,0.06998
1041.39,0.06521
1037.53,0.05707
1033.68,0.04634
1029.82,0.03524
1025.96,0.04886
1022.1,0.10209
1018.25,0.12928
1014.39,0.12651
1010.53,0.09918
1006.68,0.07905
1002.82,0.06600
998.962,0.05687
995.105,0.04978
991.248,0.04601
987.391,0.04474
983.534,0.03998
979.677,0.03973
975.82,0.04638
971.963,0.05952
968.106,0.06356
964.249,0.05669
960.392,0.04872
956.535,0.04198
952.678,0.03669
948.821,0.03251
944.964,0.02909
941.107,0.02619
937.25,0.02369
933.393,0.02144
929.536,0.01939
925.679,0.01745
921.822,0.01575
917.965,0.01439
914.108,0.01363
910.251,0.01387
906.394,0.01555
902.537,0.01806
898.68,0.01954
894.823,0.01894
890.966,0.01740
887.109,0.01714
883.252,0.02026
879.395,0.02882
875.538,0.04904
871.681,0.08377
867.824,0.05026
863.967,0.03101
860.11,0.02719
856.253,0.02966
852.396,0.03564
848.539,0.04393
844.682,0.04478
840.825,0.03904
836.968,0.03329
833.111,0.02819
829.254,0.02397
825.397,0.02079
821.54,0.01861
817.683,0.01728
813.826,0.01643
809.969,0.01586
806.112,0.01577
802.255,0.01602
798.398,0.01687
794.541,0.02298
790.684,0.02391
786.827,0.01885
782.97,0.01450
779.113,0.01174
775.256,0.00976
771.399,0.00804
767.542,0.00630
763.685,0.00455
759.828,0.00319
755.971,0.00205
752.114,0.00102
748.257,0.00047
744.4,0.00018
740.543,0.00808
736.686,0.03843
732.829,0.09538
728.972,0.15720
725.115,0.20572
721.258,0.19859
717.401,0.16227
713.544,0.13033
709.687,0.10462
705.83,0.08345
701.973,0.06741
698.116,0.05266
694.259,0.04101
690.402,0.03321
686.545,0.02785
682.688,0.02417
678.831,0.02154
674.974,0.01782
671.117,0.01423
667.26,0.01099
663.403,0.00856
659.546,0.00596
655.689,0.00357
651.832,0.00119
649.904,0.00000