File: Exploratory-Data-Science/Model Testing of Backsheet Color and FTIR Data/FTIR/XENON1-FTIR/Arkema XENON 3800HR PET 3.024-1.SPA.dpt
3999.71,0.00101
3995.85,0.00085
3991.99,0.00076
3988.13,0.00063
3984.28,0.00053
3980.42,0.00041
3976.56,0.00032
3972.71,0.00031
3968.85,0.00021
3964.99,0.00019
3961.14,0.00014
3957.28,0.00007
3953.42,0.00004
3949.56,0.00000
3945.71,-0.00004
3941.85,-0.00012
3937.99,-0.00017
3934.14,-0.00016
3930.28,-0.00009
3926.42,-0.00005
3922.57,-0.00012
3918.71,-0.00008
3914.85,-0.00015
3910.99,-0.00009
3907.14,-0.00013
3903.28,0.00003
3899.42,0.00002
3895.57,0.00002
3891.71,-0.00005
3887.85,-0.00002
3884,-0.00007
3880.14,-0.00010
3876.28,-0.00014
3872.42,-0.00007
3868.57,-0.00012
3864.71,-0.00010
3860.85,-0.00014
3857,-0.00011
3853.14,0.00018
3849.28,-0.00001
3845.43,0.00000
3841.57,-0.00002
3837.71,0.00007
3833.85,-0.00010
3830,-0.00006
3826.14,-0.00000
3822.28,-0.00001
3818.43,-0.00004
3814.57,-0.00003
3810.71,-0.00013
3806.86,-0.00006
3803,-0.00007
3799.14,-0.00003
3795.28,-0.00002
3791.43,-0.00006
3787.57,-0.00010
3783.71,-0.00004
3779.86,-0.00002
3776,-0.00008
3772.14,-0.00007
3768.29,-0.00010
3764.43,-0.00015
3760.57,-0.00011
3756.72,-0.00004
3752.86,-0.00005
3749,0.00008
3745.14,0.00012
3741.29,0.00000
3737.43,0.00001
3733.57,0.00009
3729.72,-0.00007
3725.86,-0.00015
3722,-0.00011
3718.15,-0.00020
3714.29,-0.00022
3710.43,-0.00012
3706.57,-0.00020
3702.72,-0.00015
3698.86,-0.00012
3695,-0.00012
3691.15,-0.00003
3687.29,-0.00002
3683.43,-0.00020
3679.58,-0.00029
3675.72,-0.00009
3671.86,-0.00036
3668,-0.00037
3664.15,-0.00045
3660.29,-0.00032
3656.43,-0.00028
3652.58,-0.00028
3648.72,-0.00009
3644.86,-0.00011
3641.01,-0.00003
3637.15,0.00000
3633.29,-0.00005
3629.43,-0.00000
3625.58,0.00000
3621.72,-0.00009
3617.86,-0.00002
3614.01,-0.00011
3610.15,-0.00007
3606.29,-0.00011
3602.44,-0.00009
3598.58,-0.00015
3594.72,-0.00009
3590.86,-0.00009
3587.01,0.00002
3583.15,-0.00002
3579.29,0.00001
3575.44,-0.00013
3571.58,-0.00012
3567.72,-0.00003
3563.87,-0.00015
3560.01,-0.00014
3556.15,-0.00018
3552.29,-0.00008
3548.44,-0.00010
3544.58,-0.00003
3540.72,-0.00002
3536.87,0.00007
3533.01,0.00000
3529.15,0.00009
3525.3,0.00006
3521.44,0.00006
3517.58,0.00000
3513.72,-0.00003
3509.87,0.00004
3506.01,-0.00008
3502.15,-0.00003
3498.3,-0.00004
3494.44,-0.00004
3490.58,-0.00004
3486.73,-0.00002
3482.87,0.00001
3479.01,-0.00010
3475.15,-0.00006
3471.3,-0.00004
3467.44,-0.00011
3463.58,-0.00001
3459.73,-0.00013
3455.87,-0.00014
3452.01,-0.00005
3448.16,-0.00006
3444.3,-0.00001
3440.44,0.00005
3436.58,0.00000
3432.73,0.00012
3428.87,0.00025
3425.01,0.00012
3421.16,-0.00001
3417.3,-0.00007
3413.44,-0.00013
3409.59,-0.00012
3405.73,-0.00016
3401.87,-0.00014
3398.01,-0.00007
3394.16,-0.00011
3390.3,-0.00013
3386.44,-0.00010
3382.59,-0.00002
3378.73,0.00000
3374.87,0.00005
3371.02,-0.00012
3367.16,-0.00015
3363.3,-0.00020
3359.44,-0.00025
3355.59,-0.00021
3351.73,-0.00027
3347.87,-0.00022
3344.02,-0.00021
3340.16,-0.00002
3336.3,-0.00006
3332.45,0.00006
3328.59,0.00007
3324.73,0.00013
3320.87,0.00005
3317.02,0.00004
3313.16,-0.00003
3309.3,0.00003
3305.45,0.00003
3301.59,0.00003
3297.73,0.00003
3293.88,0.00004
3290.02,-0.00000
3286.16,-0.00001
3282.3,0.00007
3278.45,0.00000
3274.59,0.00006
3270.73,-0.00007
3266.88,-0.00010
3263.02,-0.00014
3259.16,-0.00021
3255.31,-0.00016
3251.45,-0.00011
3247.59,-0.00021
3243.73,-0.00015
3239.88,-0.00021
3236.02,-0.00009
3232.16,-0.00014
3228.31,-0.00002
3224.45,-0.00006
3220.59,0.00000
3216.74,-0.00010
3212.88,-0.00010
3209.02,-0.00017
3205.16,-0.00013
3201.31,-0.00009
3197.45,-0.00017
3193.59,-0.00007
3189.74,-0.00001
3185.88,-0.00011
3182.02,0.00001
3178.17,-0.00001
3174.31,-0.00004
3170.45,0.00005
3166.59,-0.00004
3162.74,-0.00003
3158.88,0.00002
3155.02,-0.00015
3151.17,-0.00018
3147.31,-0.00016
3143.45,-0.00013
3139.6,-0.00011
3135.74,0.00003
3131.88,0.00010
3128.02,0.00011
3124.17,0.00009
3120.31,0.00011
3116.45,0.00030
3112.6,0.00063
3108.74,0.00145
3104.88,0.00284
3101.03,0.00283
3097.17,0.00229
3093.31,0.00234
3089.45,0.00268
3085.6,0.00320
3081.74,0.00375
3077.88,0.00449
3074.03,0.00550
3070.17,0.00660
3066.31,0.00805
3062.46,0.00859
3058.6,0.00675
3054.74,0.00482
3050.88,0.00379
3047.03,0.00329
3043.17,0.00314
3039.31,0.00326
3035.46,0.00346
3031.6,0.00377
3027.74,0.00411
3023.89,0.00443
3020.03,0.00499
3016.17,0.00566
3012.31,0.00624
3008.46,0.00675
3004.6,0.00709
3000.74,0.00740
2996.89,0.00776
2993.03,0.00820
2989.17,0.00859
2985.32,0.00889
2981.46,0.00926
2977.6,0.00947
2973.74,0.00970
2969.89,0.00982
2966.03,0.00957
2962.17,0.00895
2958.32,0.00852
2954.46,0.00818
2950.6,0.00792
2946.75,0.00755
2942.89,0.00700
2939.03,0.00643
2935.17,0.00565
2931.32,0.00493
2927.46,0.00435
2923.6,0.00390
2919.75,0.00387
2915.89,0.00406
2912.03,0.00496
2908.18,0.00598
2904.32,0.00656
2900.46,0.00684
2896.6,0.00708
2892.75,0.00742
2888.89,0.00786
2885.03,0.00809
2881.18,0.00820
2877.32,0.00813
2873.46,0.00790
2869.61,0.00781
2865.75,0.00768
2861.89,0.00754
2858.03,0.00758
2854.18,0.00765
2850.32,0.00811
2846.46,0.00900
2842.61,0.01006
2838.75,0.01077
2834.89,0.01141
2831.04,0.01192
2827.18,0.01242
2823.32,0.01283
2819.46,0.01294
2815.61,0.01275
2811.75,0.01230
2807.89,0.01169
2804.04,0.01096
2800.18,0.01022
2796.32,0.00927
2792.47,0.00823
2788.61,0.00713
2784.75,0.00613
2780.89,0.00522
2777.04,0.00444
2773.18,0.00368
2769.32,0.00307
2765.47,0.00251
2761.61,0.00181
2757.75,0.00125
2753.9,0.00075
2750.04,0.00032
2746.18,0.00004
2742.32,-0.00005
2738.47,-0.00006
2734.61,-0.00002
2730.75,0.00005
2726.9,0.00012
2723.04,0.00024
2719.18,0.00038
2715.33,0.00036
2711.47,0.00024
2707.61,0.00019
2703.75,0.00045
2699.9,0.00109
2696.04,0.00211
2692.18,0.00340
2688.33,0.00491
2684.47,0.00673
2680.61,0.00866
2676.76,0.01043
2672.9,0.01183
2669.04,0.01276
2665.18,0.01321
2661.33,0.01330
2657.47,0.01303
2653.61,0.01247
2649.76,0.01176
2645.9,0.01097
2642.04,0.01014
2638.19,0.00933
2634.33,0.00861
2630.47,0.00798
2626.61,0.00738
2622.76,0.00687
2618.9,0.00652
2615.04,0.00621
2611.19,0.00602
2607.33,0.00584
2603.47,0.00568
2599.62,0.00586
2595.76,0.00606
2591.9,0.00616
2588.04,0.00629
2584.19,0.00650
2580.33,0.00718
2576.47,0.00827
2572.62,0.01001
2568.76,0.01215
2564.9,0.01454
2561.05,0.01674
2557.19,0.01847
2553.33,0.01957
2549.47,0.02034
2545.62,0.02065
2541.76,0.02071
2537.9,0.02026
2534.05,0.01958
2530.19,0.01871
2526.33,0.01765
2522.48,0.01651
2518.62,0.01532
2514.76,0.01405
2510.9,0.01291
2507.05,0.01190
2503.19,0.01083
2499.33,0.00984
2495.48,0.00892
2491.62,0.00805
2487.76,0.00733
2483.91,0.00674
2480.05,0.00610
2476.19,0.00556
2472.33,0.00503
2468.48,0.00465
2464.62,0.00434
2460.76,0.00394
2456.91,0.00366
2453.05,0.00334
2449.19,0.00301
2445.34,0.00268
2441.48,0.00243
2437.62,0.00225
2433.77,0.00203
2429.91,0.00187
2426.05,0.00179
2422.19,0.00168
2418.34,0.00158
2414.48,0.00157
2410.62,0.00157
2406.77,0.00154
2402.91,0.00154
2399.05,0.00153
2395.2,0.00155
2391.34,0.00152
2387.48,0.00156
2383.62,0.00155
2379.77,0.00141
2375.91,0.00103
2372.05,0.00061
2368.2,0.00025
2364.34,0.00004
2360.48,0.00000
2356.63,0.00005
2352.77,0.00041
2348.91,0.00088
2345.05,0.00037
2341.2,0.00007
2337.34,0.00010
2333.48,0.00011
2329.63,0.00010
2325.77,0.00024
2321.91,0.00061
2318.06,0.00073
2314.2,0.00082
2310.34,0.00102
2306.48,0.00111
2302.63,0.00125
2298.77,0.00130
2294.91,0.00129
2291.06,0.00133
2287.2,0.00134
2283.34,0.00132
2279.49,0.00099
2275.63,0.00073
2271.77,0.00064
2267.91,0.00039
2264.06,0.00033
2260.2,0.00022
2256.34,0.00009
2252.49,0.00005
2248.63,0.00003
2244.77,0.00002
2240.92,-0.00000
2237.06,0.00004
2233.2,0.00017
2229.34,0.00030
2225.49,0.00020
2221.63,0.00016
2217.77,0.00008
2213.92,0.00003
2210.06,0.00000
2206.2,0.00002
2202.35,0.00019
2198.49,0.00017
2194.63,0.00037
2190.77,0.00030
2186.92,0.00043
2183.06,0.00028
2179.2,0.00031
2175.35,0.00046
2171.49,0.00077
2167.63,0.00098
2163.78,0.00067
2159.92,0.00022
2156.06,0.00045
2152.2,0.00198
2148.35,0.00277
2144.49,0.00345
2140.63,0.00398
2136.78,0.00443
2132.92,0.00477
2129.06,0.00545
2125.21,0.00578
2121.35,0.00599
2117.49,0.00609
2113.63,0.00618
2109.78,0.00609
2105.92,0.00601
2102.06,0.00593
2098.21,0.00578
2094.35,0.00568
2090.49,0.00567
2086.64,0.00553
2082.78,0.00539
2078.92,0.00518
2075.06,0.00487
2071.21,0.00470
2067.35,0.00457
2063.49,0.00459
2059.64,0.00431
2055.78,0.00390
2051.92,0.00341
2048.07,0.00249
2044.21,0.00178
2040.35,0.00115
2036.49,0.00053
2032.64,0.00012
2028.78,0.00012
2024.92,0.00022
2021.07,0.00022
2017.21,0.00016
2013.35,0.00015
2009.5,0.00034
2005.64,0.00019
2001.78,0.00055
1997.92,0.00062
1994.07,0.00060
1990.21,0.00061
1986.35,0.00036
1982.5,0.00038
1978.64,0.00031
1974.78,0.00000
1970.93,0.00083
1967.07,0.00187
1963.21,0.00264
1959.35,0.00275
1955.5,0.00256
1951.64,0.00227
1947.78,0.00207
1943.93,0.00185
1940.07,0.00153
1936.21,0.00148
1932.36,0.00135
1928.5,0.00120
1924.64,0.00113
1920.78,0.00102
1916.93,0.00103
1913.07,0.00080
1909.21,0.00067
1905.36,0.00061
1901.5,0.00042
1897.64,0.00031
1893.79,0.00025
1889.93,0.00012
1886.07,0.00007
1882.21,0.00000
1878.36,-0.00003
1874.5,-0.00000
1870.64,-0.00003
1866.79,-0.00003
1862.93,0.00003
1859.07,0.00006
1855.22,-0.00005
1851.36,-0.00013
1847.5,-0.00014
1843.64,-0.00001
1839.79,0.00022
1835.93,0.00049
1832.07,0.00060
1828.22,0.00053
1824.36,0.00059
1820.5,0.00083
1816.65,0.00120
1812.79,0.00186
1808.93,0.00262
1805.07,0.00341
1801.22,0.00417
1797.36,0.00495
1793.5,0.00557
1789.65,0.00607
1785.79,0.00647
1781.93,0.00669
1778.08,0.00680
1774.22,0.00694
1770.36,0.00717
1766.5,0.00763
1762.65,0.00836
1758.79,0.00953
1754.93,0.01118
1751.08,0.01345
1747.22,0.01676
1743.36,0.02228
1739.51,0.02998
1735.65,0.03972
1731.79,0.05270
1727.93,0.06847
1724.08,0.08516
1720.22,0.10171
1716.36,0.11370
1712.51,0.11540
1708.65,0.11760
1704.79,0.12729
1700.94,0.14319
1697.08,0.16394
1693.22,0.18813
1689.36,0.21040
1685.51,0.22187
1681.65,0.23053
1677.79,0.23092
1673.94,0.20069
1670.08,0.15838
1666.22,0.12108
1662.37,0.09331
1658.51,0.07407
1654.65,0.06110
1650.79,0.05212
1646.94,0.04538
1643.08,0.03940
1639.22,0.03443
1635.37,0.03055
1631.51,0.02735
1627.65,0.02486
1623.8,0.02290
1619.94,0.02149
1616.08,0.02126
1612.22,0.02137
1608.37,0.01959
1604.51,0.01643
1600.65,0.01300
1596.8,0.01014
1592.94,0.00849
1589.08,0.00777
1585.23,0.00901
1581.37,0.01562
1577.51,0.03171
1573.65,0.03669
1569.8,0.02132
1565.94,0.01153
1562.08,0.00716
1558.23,0.00456
1554.37,0.00283
1550.51,0.00171
1546.66,0.00105
1542.8,0.00076
1538.94,0.00050
1535.08,0.00014
1531.23,0.00000
1527.37,0.00012
1523.51,0.00056
1519.66,0.00138
1515.8,0.00533
1511.94,0.02701
1508.09,0.03679
1504.23,0.02055
1500.37,0.00729
1496.51,0.00190
1492.66,0.00037
1488.8,0.00007
1484.94,-0.00003
1481.09,0.00032
1477.23,0.00151
1473.37,0.00482
1469.52,0.00553
1465.66,0.00309
1461.8,0.00324
1457.94,0.00429
1454.09,0.00579
1450.23,0.00714
1446.37,0.00902
1442.52,0.01291
1438.66,0.02021
1434.8,0.03229
1430.95,0.04791
1427.09,0.06285
1423.23,0.06887
1419.37,0.06053
1415.52,0.05431
1411.66,0.05985
1407.8,0.05887
1403.95,0.04418
1400.09,0.02813
1396.23,0.01855
1392.38,0.01429
1388.52,0.01365
1384.66,0.01370
1380.8,0.01135
1376.95,0.00806
1373.09,0.00573
1369.23,0.00407
1365.38,0.00221
1361.52,0.00057
1357.66,0.00000
1353.81,0.00054
1349.95,0.00421
1346.09,0.01666
1342.23,0.03954
1338.38,0.04629
1334.52,0.03364
1330.66,0.02756
1326.81,0.02855
1322.95,0.02987
1319.09,0.03593
1315.24,0.04173
1311.38,0.03975
1307.52,0.04715
1303.66,0.06134
1299.81,0.07731
1295.95,0.08900
1292.09,0.09572
1288.24,0.10176
1284.38,0.10661
1280.52,0.10785
1276.67,0.10710
1272.81,0.10848
1268.95,0.11215
1265.09,0.11673
1261.24,0.12218
1257.38,0.12927
1253.52,0.13897
1249.67,0.14858
1245.81,0.15397
1241.95,0.15423
1238.1,0.14932
1234.24,0.14079
1230.38,0.13128
1226.52,0.12298
1222.67,0.11673
1218.81,0.10974
1214.95,0.10212
1211.1,0.09656
1207.24,0.09219
1203.38,0.08723
1199.53,0.08128
1195.67,0.07481
1191.81,0.06821
1187.95,0.06167
1184.1,0.05552
1180.24,0.04948
1176.38,0.04304
1172.53,0.03587
1168.67,0.02802
1164.81,0.02063
1160.96,0.01454
1157.1,0.01006
1153.24,0.00752
1149.39,0.00700
1145.53,0.00934
1141.67,0.01731
1137.81,0.03479
1133.96,0.05630
1130.1,0.07805
1126.24,0.09604
1122.39,0.10489
1118.53,0.10524
1114.67,0.10534
1110.82,0.11198
1106.96,0.11612
1103.1,0.11909
1099.24,0.11903
1095.39,0.11619
1091.53,0.11179
1087.67,0.10765
1083.82,0.10391
1079.96,0.09904
1076.1,0.09280
1072.25,0.08609
1068.39,0.07905
1064.53,0.07182
1060.67,0.06478
1056.82,0.05823
1052.96,0.05233
1049.1,0.04710
1045.25,0.04196
1041.39,0.03639
1037.53,0.02973
1033.68,0.02090
1029.82,0.00999
1025.96,0.01576
1022.1,0.05926
1018.25,0.08494
1014.39,0.07480
1010.53,0.05890
1006.68,0.04728
1002.82,0.03957
998.962,0.03410
995.105,0.02990
991.248,0.02709
987.391,0.02778
983.534,0.02492
979.677,0.02191
975.82,0.02366
971.963,0.03162
968.106,0.03829
964.249,0.03934
960.392,0.03909
956.535,0.03948
952.678,0.04088
948.821,0.04299
944.964,0.04503
941.107,0.04605
937.25,0.04545
933.393,0.04318
929.536,0.03949
925.679,0.03502
921.822,0.03027
917.965,0.02576
914.108,0.02165
910.251,0.01805
906.394,0.01506
902.537,0.01264
898.68,0.01044
894.823,0.00793
890.966,0.00561
887.109,0.00677
883.252,0.01757
879.395,0.02732
875.538,0.02486
871.681,0.03884
867.824,0.02018
863.967,0.01044
860.11,0.00828
856.253,0.00936
852.396,0.01065
848.539,0.01478
844.682,0.01719
840.825,0.01461
836.968,0.01164
833.111,0.00957
829.254,0.00808
825.397,0.00716
821.54,0.00689
817.683,0.00469
813.826,0.00298
809.969,0.00172
806.112,0.00108
802.255,0.00146
798.398,0.00271
794.541,0.00562
790.684,0.00871
786.827,0.01553
782.97,0.02992
779.113,0.02987
775.256,0.02200
771.399,0.01659
767.542,0.01344
763.685,0.01140
759.828,0.01014
755.971,0.00879
752.114,0.00682
748.257,0.00412
744.4,0.00098
740.543,0.00030
736.686,0.01622
732.829,0.05099
728.972,0.08186
725.115,0.10762
721.258,0.11096
717.401,0.09889
713.544,0.08647
709.687,0.07614
705.83,0.06711
701.973,0.05959
698.116,0.05306
694.259,0.04813
690.402,0.04429
686.545,0.04034
682.688,0.03658
678.831,0.03330
674.974,0.03051
671.117,0.02747
667.26,0.02333
663.403,0.01877
659.546,0.01377
655.689,0.00820
651.832,0.00258
649.904,0.00000