File: Exploratory-Data-Science/Model Testing of Backsheet Color and FTIR Data/FTIR/XENON1-FTIR/Arkema XENON 2000HR PET 3.017-1.SPA.dpt
3999.71,0.00124
3995.85,0.00100
3991.99,0.00090
3988.13,0.00080
3984.28,0.00069
3980.42,0.00050
3976.56,0.00048
3972.71,0.00040
3968.85,0.00029
3964.99,0.00025
3961.14,0.00022
3957.28,0.00016
3953.42,0.00000
3949.56,0.00000
3945.71,0.00002
3941.85,0.00000
3937.99,-0.00015
3934.14,-0.00017
3930.28,-0.00013
3926.42,-0.00015
3922.57,-0.00014
3918.71,-0.00006
3914.85,-0.00001
3910.99,0.00001
3907.14,-0.00001
3903.28,-0.00000
3899.42,0.00005
3895.57,0.00003
3891.71,0.00002
3887.85,-0.00001
3884,-0.00021
3880.14,-0.00022
3876.28,-0.00011
3872.42,-0.00016
3868.57,-0.00007
3864.71,-0.00015
3860.85,-0.00011
3857,0.00005
3853.14,0.00011
3849.28,0.00000
3845.43,0.00012
3841.57,0.00001
3837.71,-0.00000
3833.85,-0.00008
3830,-0.00018
3826.14,-0.00014
3822.28,-0.00006
3818.43,-0.00009
3814.57,-0.00013
3810.71,-0.00006
3806.86,-0.00015
3803,-0.00007
3799.14,-0.00010
3795.28,0.00002
3791.43,0.00001
3787.57,-0.00001
3783.71,-0.00008
3779.86,-0.00014
3776,-0.00012
3772.14,-0.00010
3768.29,-0.00000
3764.43,-0.00008
3760.57,-0.00009
3756.72,-0.00010
3752.86,-0.00008
3749,0.00002
3745.14,-0.00007
3741.29,0.00000
3737.43,-0.00002
3733.57,-0.00002
3729.72,-0.00015
3725.86,-0.00021
3722,-0.00026
3718.15,-0.00022
3714.29,-0.00022
3710.43,-0.00018
3706.57,-0.00025
3702.72,-0.00020
3698.86,-0.00018
3695,-0.00012
3691.15,-0.00002
3687.29,-0.00008
3683.43,-0.00009
3679.58,-0.00016
3675.72,-0.00023
3671.86,-0.00036
3668,-0.00038
3664.15,-0.00032
3660.29,-0.00042
3656.43,-0.00018
3652.58,-0.00027
3648.72,-0.00012
3644.86,0.00001
3641.01,0.00000
3637.15,0.00011
3633.29,0.00003
3629.43,-0.00013
3625.58,-0.00019
3621.72,-0.00003
3617.86,0.00003
3614.01,-0.00018
3610.15,-0.00006
3606.29,-0.00005
3602.44,-0.00015
3598.58,-0.00025
3594.72,-0.00017
3590.86,-0.00015
3587.01,0.00005
3583.15,-0.00008
3579.29,-0.00009
3575.44,-0.00012
3571.58,-0.00007
3567.72,-0.00015
3563.87,-0.00015
3560.01,-0.00022
3556.15,-0.00017
3552.29,-0.00021
3548.44,-0.00012
3544.58,0.00003
3540.72,-0.00000
3536.87,-0.00009
3533.01,0.00000
3529.15,-0.00004
3525.3,-0.00012
3521.44,-0.00004
3517.58,0.00002
3513.72,-0.00005
3509.87,0.00003
3506.01,-0.00002
3502.15,0.00001
3498.3,0.00004
3494.44,0.00013
3490.58,0.00010
3486.73,0.00010
3482.87,0.00004
3479.01,0.00005
3475.15,0.00005
3471.3,-0.00002
3467.44,-0.00008
3463.58,-0.00015
3459.73,-0.00013
3455.87,-0.00013
3452.01,-0.00026
3448.16,-0.00024
3444.3,-0.00026
3440.44,-0.00022
3436.58,-0.00010
3432.73,0.00002
3428.87,0.00005
3425.01,-0.00005
3421.16,-0.00019
3417.3,-0.00019
3413.44,-0.00015
3409.59,-0.00024
3405.73,-0.00027
3401.87,-0.00021
3398.01,-0.00014
3394.16,-0.00017
3390.3,-0.00013
3386.44,-0.00005
3382.59,0.00000
3378.73,0.00006
3374.87,-0.00002
3371.02,-0.00016
3367.16,-0.00022
3363.3,-0.00030
3359.44,-0.00037
3355.59,-0.00038
3351.73,-0.00040
3347.87,-0.00039
3344.02,-0.00039
3340.16,-0.00027
3336.3,-0.00018
3332.45,-0.00012
3328.59,-0.00004
3324.73,0.00001
3320.87,0.00002
3317.02,0.00007
3313.16,-0.00006
3309.3,-0.00011
3305.45,-0.00005
3301.59,-0.00004
3297.73,-0.00009
3293.88,-0.00010
3290.02,0.00001
3286.16,0.00003
3282.3,-0.00007
3278.45,-0.00000
3274.59,0.00002
3270.73,-0.00008
3266.88,-0.00007
3263.02,-0.00014
3259.16,-0.00009
3255.31,-0.00012
3251.45,-0.00017
3247.59,-0.00022
3243.73,-0.00018
3239.88,-0.00018
3236.02,-0.00012
3232.16,-0.00009
3228.31,-0.00004
3224.45,0.00000
3220.59,0.00010
3216.74,0.00000
3212.88,-0.00008
3209.02,-0.00003
3205.16,-0.00008
3201.31,-0.00012
3197.45,-0.00010
3193.59,-0.00012
3189.74,-0.00008
3185.88,-0.00013
3182.02,-0.00011
3178.17,-0.00006
3174.31,-0.00004
3170.45,-0.00001
3166.59,0.00004
3162.74,-0.00006
3158.88,-0.00010
3155.02,-0.00019
3151.17,-0.00029
3147.31,-0.00026
3143.45,-0.00025
3139.6,-0.00025
3135.74,-0.00022
3131.88,-0.00012
3128.02,-0.00006
3124.17,-0.00009
3120.31,-0.00003
3116.45,0.00005
3112.6,0.00035
3108.74,0.00113
3104.88,0.00242
3101.03,0.00246
3097.17,0.00177
3093.31,0.00163
3089.45,0.00182
3085.6,0.00222
3081.74,0.00260
3077.88,0.00325
3074.03,0.00408
3070.17,0.00503
3066.31,0.00612
3062.46,0.00676
3058.6,0.00500
3054.74,0.00331
3050.88,0.00228
3047.03,0.00179
3043.17,0.00157
3039.31,0.00159
3035.46,0.00174
3031.6,0.00191
3027.74,0.00227
3023.89,0.00257
3020.03,0.00300
3016.17,0.00357
3012.31,0.00414
3008.46,0.00457
3004.6,0.00493
3000.74,0.00519
2996.89,0.00551
2993.03,0.00592
2989.17,0.00624
2985.32,0.00653
2981.46,0.00680
2977.6,0.00705
2973.74,0.00728
2969.89,0.00750
2966.03,0.00739
2962.17,0.00700
2958.32,0.00665
2954.46,0.00643
2950.6,0.00615
2946.75,0.00578
2942.89,0.00532
2939.03,0.00488
2935.17,0.00437
2931.32,0.00379
2927.46,0.00335
2923.6,0.00314
2919.75,0.00317
2915.89,0.00332
2912.03,0.00377
2908.18,0.00450
2904.32,0.00498
2900.46,0.00520
2896.6,0.00532
2892.75,0.00557
2888.89,0.00593
2885.03,0.00617
2881.18,0.00626
2877.32,0.00625
2873.46,0.00612
2869.61,0.00598
2865.75,0.00584
2861.89,0.00581
2858.03,0.00597
2854.18,0.00628
2850.32,0.00670
2846.46,0.00737
2842.61,0.00805
2838.75,0.00864
2834.89,0.00926
2831.04,0.00973
2827.18,0.01017
2823.32,0.01055
2819.46,0.01077
2815.61,0.01067
2811.75,0.01035
2807.89,0.00986
2804.04,0.00927
2800.18,0.00852
2796.32,0.00777
2792.47,0.00682
2788.61,0.00595
2784.75,0.00499
2780.89,0.00417
2777.04,0.00346
2773.18,0.00282
2769.32,0.00226
2765.47,0.00176
2761.61,0.00126
2757.75,0.00073
2753.9,0.00025
2750.04,-0.00011
2746.18,-0.00025
2742.32,-0.00032
2738.47,-0.00031
2734.61,-0.00026
2730.75,-0.00024
2726.9,-0.00015
2723.04,-0.00001
2719.18,0.00010
2715.33,0.00003
2711.47,0.00004
2707.61,0.00001
2703.75,0.00019
2699.9,0.00076
2696.04,0.00162
2692.18,0.00284
2688.33,0.00421
2684.47,0.00585
2680.61,0.00766
2676.76,0.00926
2672.9,0.01058
2669.04,0.01158
2665.18,0.01206
2661.33,0.01218
2657.47,0.01196
2653.61,0.01144
2649.76,0.01081
2645.9,0.01005
2642.04,0.00938
2638.19,0.00864
2634.33,0.00796
2630.47,0.00733
2626.61,0.00685
2622.76,0.00638
2618.9,0.00597
2615.04,0.00567
2611.19,0.00547
2607.33,0.00534
2603.47,0.00521
2599.62,0.00544
2595.76,0.00565
2591.9,0.00577
2588.04,0.00594
2584.19,0.00619
2580.33,0.00672
2576.47,0.00776
2572.62,0.00932
2568.76,0.01130
2564.9,0.01347
2561.05,0.01560
2557.19,0.01729
2553.33,0.01848
2549.47,0.01922
2545.62,0.01968
2541.76,0.01973
2537.9,0.01945
2534.05,0.01887
2530.19,0.01799
2526.33,0.01713
2522.48,0.01601
2518.62,0.01482
2514.76,0.01364
2510.9,0.01262
2507.05,0.01162
2503.19,0.01062
2499.33,0.00968
2495.48,0.00881
2491.62,0.00800
2487.76,0.00727
2483.91,0.00656
2480.05,0.00597
2476.19,0.00549
2472.33,0.00497
2468.48,0.00459
2464.62,0.00423
2460.76,0.00402
2456.91,0.00363
2453.05,0.00337
2449.19,0.00309
2445.34,0.00276
2441.48,0.00245
2437.62,0.00232
2433.77,0.00217
2429.91,0.00206
2426.05,0.00195
2422.19,0.00194
2418.34,0.00190
2414.48,0.00189
2410.62,0.00193
2406.77,0.00205
2402.91,0.00206
2399.05,0.00212
2395.2,0.00212
2391.34,0.00222
2387.48,0.00225
2383.62,0.00226
2379.77,0.00208
2375.91,0.00160
2372.05,0.00089
2368.2,0.00032
2364.34,0.00000
2360.48,0.00001
2356.63,0.00011
2352.77,0.00067
2348.91,0.00147
2345.05,0.00060
2341.2,0.00016
2337.34,0.00019
2333.48,0.00008
2329.63,0.00010
2325.77,0.00034
2321.91,0.00064
2318.06,0.00084
2314.2,0.00112
2310.34,0.00129
2306.48,0.00146
2302.63,0.00163
2298.77,0.00165
2294.91,0.00165
2291.06,0.00164
2287.2,0.00160
2283.34,0.00147
2279.49,0.00121
2275.63,0.00101
2271.77,0.00066
2267.91,0.00066
2264.06,0.00050
2260.2,0.00032
2256.34,0.00025
2252.49,0.00004
2248.63,0.00003
2244.77,0.00000
2240.92,0.00005
2237.06,0.00013
2233.2,0.00013
2229.34,0.00024
2225.49,0.00024
2221.63,0.00016
2217.77,0.00018
2213.92,0.00017
2210.06,0.00012
2206.2,0.00001
2202.35,0.00006
2198.49,0.00022
2194.63,0.00030
2190.77,0.00032
2186.92,0.00027
2183.06,0.00009
2179.2,0.00011
2175.35,0.00049
2171.49,0.00093
2167.63,0.00110
2163.78,0.00062
2159.92,0.00000
2156.06,0.00055
2152.2,0.00180
2148.35,0.00265
2144.49,0.00321
2140.63,0.00377
2136.78,0.00419
2132.92,0.00472
2129.06,0.00549
2125.21,0.00586
2121.35,0.00615
2117.49,0.00626
2113.63,0.00640
2109.78,0.00630
2105.92,0.00603
2102.06,0.00613
2098.21,0.00588
2094.35,0.00586
2090.49,0.00565
2086.64,0.00567
2082.78,0.00553
2078.92,0.00527
2075.06,0.00506
2071.21,0.00490
2067.35,0.00465
2063.49,0.00455
2059.64,0.00417
2055.78,0.00386
2051.92,0.00342
2048.07,0.00245
2044.21,0.00164
2040.35,0.00092
2036.49,0.00031
2032.64,0.00001
2028.78,-0.00001
2024.92,-0.00004
2021.07,0.00010
2017.21,0.00011
2013.35,0.00025
2009.5,0.00011
2005.64,0.00001
2001.78,0.00060
1997.92,0.00076
1994.07,0.00078
1990.21,0.00072
1986.35,0.00052
1982.5,0.00028
1978.64,0.00005
1974.78,-0.00012
1970.93,0.00054
1967.07,0.00193
1963.21,0.00292
1959.35,0.00295
1955.5,0.00300
1951.64,0.00244
1947.78,0.00214
1943.93,0.00188
1940.07,0.00155
1936.21,0.00141
1932.36,0.00143
1928.5,0.00137
1924.64,0.00129
1920.78,0.00114
1916.93,0.00105
1913.07,0.00084
1909.21,0.00076
1905.36,0.00059
1901.5,0.00045
1897.64,0.00029
1893.79,0.00015
1889.93,0.00017
1886.07,0.00009
1882.21,0.00007
1878.36,0.00002
1874.5,0.00001
1870.64,0.00003
1866.79,0.00014
1862.93,0.00015
1859.07,0.00015
1855.22,0.00013
1851.36,0.00004
1847.5,0.00000
1843.64,0.00012
1839.79,0.00023
1835.93,0.00045
1832.07,0.00051
1828.22,0.00035
1824.36,0.00035
1820.5,0.00047
1816.65,0.00084
1812.79,0.00150
1808.93,0.00220
1805.07,0.00297
1801.22,0.00380
1797.36,0.00460
1793.5,0.00527
1789.65,0.00587
1785.79,0.00633
1781.93,0.00668
1778.08,0.00687
1774.22,0.00709
1770.36,0.00738
1766.5,0.00785
1762.65,0.00857
1758.79,0.00973
1754.93,0.01143
1751.08,0.01367
1747.22,0.01702
1743.36,0.02257
1739.51,0.03022
1735.65,0.03970
1731.79,0.05222
1727.93,0.06747
1724.08,0.08369
1720.22,0.10042
1716.36,0.11422
1712.51,0.11857
1708.65,0.12049
1704.79,0.12828
1700.94,0.14183
1697.08,0.16077
1693.22,0.18492
1689.36,0.21148
1685.51,0.23164
1681.65,0.24902
1677.79,0.26205
1673.94,0.24222
1670.08,0.20035
1666.22,0.15822
1662.37,0.12447
1658.51,0.10013
1654.65,0.08329
1650.79,0.07152
1646.94,0.06274
1643.08,0.05507
1639.22,0.04854
1635.37,0.04324
1631.51,0.03901
1627.65,0.03563
1623.8,0.03286
1619.94,0.03077
1616.08,0.03008
1612.22,0.03011
1608.37,0.02790
1604.51,0.02376
1600.65,0.01921
1596.8,0.01530
1592.94,0.01285
1589.08,0.01154
1585.23,0.01236
1581.37,0.01903
1577.51,0.03585
1573.65,0.04150
1569.8,0.02519
1565.94,0.01420
1562.08,0.00904
1558.23,0.00586
1554.37,0.00383
1550.51,0.00242
1546.66,0.00154
1542.8,0.00112
1538.94,0.00066
1535.08,0.00027
1531.23,0.00000
1527.37,0.00008
1523.51,0.00051
1519.66,0.00125
1515.8,0.00531
1511.94,0.02734
1508.09,0.03854
1504.23,0.02288
1500.37,0.00848
1496.51,0.00229
1492.66,0.00046
1488.8,0.00006
1484.94,0.00000
1481.09,0.00048
1477.23,0.00192
1473.37,0.00576
1469.52,0.00677
1465.66,0.00373
1461.8,0.00377
1457.94,0.00490
1454.09,0.00658
1450.23,0.00795
1446.37,0.00980
1442.52,0.01378
1438.66,0.02126
1434.8,0.03344
1430.95,0.04904
1427.09,0.06395
1423.23,0.06984
1419.37,0.06156
1415.52,0.05561
1411.66,0.06252
1407.8,0.06333
1403.95,0.04842
1400.09,0.03079
1396.23,0.02010
1392.38,0.01531
1388.52,0.01460
1384.66,0.01471
1380.8,0.01228
1376.95,0.00888
1373.09,0.00643
1369.23,0.00462
1365.38,0.00250
1361.52,0.00068
1357.66,0.00000
1353.81,0.00044
1349.95,0.00405
1346.09,0.01630
1342.23,0.03930
1338.38,0.04627
1334.52,0.03378
1330.66,0.02805
1326.81,0.02918
1322.95,0.03075
1319.09,0.03687
1315.24,0.04267
1311.38,0.04124
1307.52,0.04902
1303.66,0.06325
1299.81,0.07864
1295.95,0.08956
1292.09,0.09631
1288.24,0.10354
1284.38,0.11017
1280.52,0.11287
1276.67,0.11253
1272.81,0.11391
1268.95,0.11778
1265.09,0.12259
1261.24,0.12794
1257.38,0.13480
1253.52,0.14468
1249.67,0.15546
1245.81,0.16274
1241.95,0.16464
1238.1,0.16074
1234.24,0.15236
1230.38,0.14234
1226.52,0.13314
1222.67,0.12606
1218.81,0.11830
1214.95,0.10963
1211.1,0.10286
1207.24,0.09720
1203.38,0.09092
1199.53,0.08368
1195.67,0.07610
1191.81,0.06873
1187.95,0.06189
1184.1,0.05586
1180.24,0.05025
1176.38,0.04421
1172.53,0.03714
1168.67,0.02915
1164.81,0.02137
1160.96,0.01467
1157.1,0.00936
1153.24,0.00593
1149.39,0.00457
1145.53,0.00631
1141.67,0.01388
1137.81,0.03121
1133.96,0.05279
1130.1,0.07481
1126.24,0.09348
1122.39,0.10309
1118.53,0.10366
1114.67,0.10430
1110.82,0.11374
1106.96,0.11921
1103.1,0.12280
1099.24,0.12286
1095.39,0.11932
1091.53,0.11338
1087.67,0.10748
1083.82,0.10275
1079.96,0.09746
1076.1,0.09114
1072.25,0.08489
1068.39,0.07855
1064.53,0.07191
1060.67,0.06522
1056.82,0.05896
1052.96,0.05347
1049.1,0.04865
1045.25,0.04390
1041.39,0.03867
1037.53,0.03227
1033.68,0.02367
1029.82,0.01281
1025.96,0.01791
1022.1,0.06202
1018.25,0.08929
1014.39,0.07886
1010.53,0.06163
1006.68,0.04938
1002.82,0.04150
998.962,0.03592
995.105,0.03180
991.248,0.02928
987.391,0.03034
983.534,0.02689
979.677,0.02444
975.82,0.02657
971.963,0.03514
968.106,0.04216
964.249,0.04318
960.392,0.04301
956.535,0.04374
952.678,0.04565
948.821,0.04841
944.964,0.05119
941.107,0.05283
937.25,0.05253
933.393,0.05011
929.536,0.04593
925.679,0.04070
921.822,0.03511
917.965,0.02976
914.108,0.02493
910.251,0.02076
906.394,0.01728
902.537,0.01451
898.68,0.01198
894.823,0.00908
890.966,0.00638
887.109,0.00801
883.252,0.02154
879.395,0.03305
875.538,0.02922
871.681,0.04494
867.824,0.02360
863.967,0.01193
860.11,0.00920
856.253,0.01020
852.396,0.01126
848.539,0.01519
844.682,0.01718
840.825,0.01355
836.968,0.00947
833.111,0.00643
829.254,0.00399
825.397,0.00210
821.54,0.00088
817.683,0.00025
813.826,0.00000
809.969,-0.00011
806.112,0.00009
802.255,0.00146
798.398,0.00367
794.541,0.00736
790.684,0.01036
786.827,0.01676
782.97,0.03178
779.113,0.03162
775.256,0.02223
771.399,0.01526
767.542,0.01077
763.685,0.00852
759.828,0.00711
755.971,0.00555
752.114,0.00365
748.257,0.00183
744.4,0.00000
740.543,0.00369
736.686,0.03252
732.829,0.08174
728.972,0.11611
725.115,0.14071
721.258,0.13239
717.401,0.10615
713.544,0.08493
709.687,0.06910
705.83,0.05643
701.973,0.04716
698.116,0.03982
694.259,0.03498
690.402,0.03153
686.545,0.02857
682.688,0.02590
678.831,0.02361
674.974,0.02163
671.117,0.01926
667.26,0.01593
663.403,0.01299
659.546,0.00951
655.689,0.00568
651.832,0.00190
649.904,0.00000