File: Exploratory-Data-Science/Model Testing of Backsheet Color and FTIR Data/FTIR/XENON1-FTIR/Arkema XENON 2000HR PET 3.017-2.SPA.dpt
3999.71,0.00141
3995.85,0.00119
3991.99,0.00104
3988.13,0.00098
3984.28,0.00079
3980.42,0.00062
3976.56,0.00052
3972.71,0.00043
3968.85,0.00030
3964.99,0.00018
3961.14,0.00015
3957.28,0.00012
3953.42,0.00003
3949.56,0.00000
3945.71,-0.00008
3941.85,-0.00012
3937.99,-0.00023
3934.14,-0.00025
3930.28,-0.00022
3926.42,-0.00030
3922.57,-0.00022
3918.71,-0.00011
3914.85,-0.00011
3910.99,-0.00018
3907.14,-0.00010
3903.28,-0.00013
3899.42,0.00000
3895.57,-0.00008
3891.71,-0.00018
3887.85,-0.00016
3884,-0.00029
3880.14,-0.00030
3876.28,-0.00016
3872.42,-0.00027
3868.57,-0.00024
3864.71,-0.00026
3860.85,-0.00019
3857,-0.00012
3853.14,0.00001
3849.28,-0.00002
3845.43,0.00000
3841.57,-0.00000
3837.71,-0.00009
3833.85,-0.00013
3830,-0.00023
3826.14,-0.00014
3822.28,-0.00005
3818.43,-0.00008
3814.57,-0.00012
3810.71,-0.00011
3806.86,-0.00020
3803,-0.00003
3799.14,-0.00003
3795.28,0.00002
3791.43,-0.00010
3787.57,-0.00007
3783.71,-0.00012
3779.86,-0.00027
3776,-0.00027
3772.14,-0.00016
3768.29,-0.00017
3764.43,-0.00028
3760.57,-0.00025
3756.72,-0.00010
3752.86,-0.00017
3749,-0.00015
3745.14,-0.00007
3741.29,0.00003
3737.43,0.00017
3733.57,0.00028
3729.72,0.00026
3725.86,0.00024
3722,-0.00001
3718.15,-0.00017
3714.29,-0.00034
3710.43,-0.00019
3706.57,-0.00011
3702.72,-0.00004
3698.86,0.00000
3695,-0.00011
3691.15,-0.00003
3687.29,-0.00014
3683.43,-0.00027
3679.58,-0.00035
3675.72,-0.00048
3671.86,-0.00059
3668,-0.00061
3664.15,-0.00058
3660.29,-0.00064
3656.43,-0.00035
3652.58,-0.00032
3648.72,-0.00020
3644.86,-0.00003
3641.01,0.00003
3637.15,0.00023
3633.29,0.00033
3629.43,0.00032
3625.58,0.00027
3621.72,0.00020
3617.86,0.00016
3614.01,-0.00017
3610.15,-0.00003
3606.29,0.00011
3602.44,0.00007
3598.58,0.00007
3594.72,0.00009
3590.86,0.00005
3587.01,0.00002
3583.15,-0.00007
3579.29,-0.00016
3575.44,-0.00015
3571.58,-0.00016
3567.72,-0.00024
3563.87,-0.00022
3560.01,-0.00023
3556.15,-0.00019
3552.29,-0.00024
3548.44,-0.00019
3544.58,-0.00006
3540.72,-0.00001
3536.87,-0.00007
3533.01,0.00001
3529.15,-0.00001
3525.3,0.00001
3521.44,0.00002
3517.58,0.00011
3513.72,0.00007
3509.87,0.00010
3506.01,0.00007
3502.15,0.00010
3498.3,0.00010
3494.44,0.00015
3490.58,0.00025
3486.73,0.00023
3482.87,0.00018
3479.01,0.00013
3475.15,0.00019
3471.3,0.00019
3467.44,0.00017
3463.58,0.00006
3459.73,0.00006
3455.87,0.00011
3452.01,0.00010
3448.16,0.00008
3444.3,0.00010
3440.44,0.00017
3436.58,0.00030
3432.73,0.00049
3428.87,0.00054
3425.01,0.00047
3421.16,0.00030
3417.3,0.00010
3413.44,0.00010
3409.59,0.00003
3405.73,0.00006
3401.87,0.00007
3398.01,0.00010
3394.16,0.00005
3390.3,0.00012
3386.44,0.00022
3382.59,0.00029
3378.73,0.00044
3374.87,0.00037
3371.02,0.00028
3367.16,0.00015
3363.3,0.00000
3359.44,-0.00009
3355.59,0.00001
3351.73,-0.00002
3347.87,0.00000
3344.02,0.00012
3340.16,0.00021
3336.3,0.00028
3332.45,0.00036
3328.59,0.00049
3324.73,0.00050
3320.87,0.00041
3317.02,0.00043
3313.16,0.00038
3309.3,0.00030
3305.45,0.00025
3301.59,0.00027
3297.73,0.00030
3293.88,0.00024
3290.02,0.00025
3286.16,0.00024
3282.3,0.00024
3278.45,0.00024
3274.59,0.00030
3270.73,0.00022
3266.88,0.00015
3263.02,0.00002
3259.16,0.00003
3255.31,-0.00007
3251.45,-0.00001
3247.59,-0.00013
3243.73,-0.00017
3239.88,-0.00012
3236.02,-0.00014
3232.16,-0.00003
3228.31,-0.00001
3224.45,0.00007
3220.59,0.00009
3216.74,-0.00000
3212.88,-0.00008
3209.02,0.00001
3205.16,-0.00006
3201.31,-0.00014
3197.45,-0.00016
3193.59,-0.00008
3189.74,-0.00007
3185.88,-0.00006
3182.02,-0.00012
3178.17,-0.00003
3174.31,-0.00004
3170.45,-0.00001
3166.59,-0.00006
3162.74,-0.00009
3158.88,-0.00016
3155.02,-0.00028
3151.17,-0.00031
3147.31,-0.00032
3143.45,-0.00027
3139.6,-0.00025
3135.74,-0.00020
3131.88,-0.00009
3128.02,-0.00003
3124.17,-0.00005
3120.31,-0.00003
3116.45,0.00018
3112.6,0.00072
3108.74,0.00195
3104.88,0.00391
3101.03,0.00406
3097.17,0.00304
3093.31,0.00291
3089.45,0.00323
3085.6,0.00386
3081.74,0.00445
3077.88,0.00540
3074.03,0.00657
3070.17,0.00799
3066.31,0.00953
3062.46,0.01025
3058.6,0.00798
3054.74,0.00559
3050.88,0.00415
3047.03,0.00348
3043.17,0.00323
3039.31,0.00335
3035.46,0.00358
3031.6,0.00397
3027.74,0.00443
3023.89,0.00494
3020.03,0.00562
3016.17,0.00651
3012.31,0.00730
3008.46,0.00796
3004.6,0.00839
3000.74,0.00882
2996.89,0.00928
2993.03,0.00981
2989.17,0.01038
2985.32,0.01082
2981.46,0.01120
2977.6,0.01157
2973.74,0.01195
2969.89,0.01224
2966.03,0.01210
2962.17,0.01153
2958.32,0.01103
2954.46,0.01071
2950.6,0.01026
2946.75,0.00972
2942.89,0.00911
2939.03,0.00848
2935.17,0.00780
2931.32,0.00705
2927.46,0.00652
2923.6,0.00632
2919.75,0.00628
2915.89,0.00647
2912.03,0.00709
2908.18,0.00810
2904.32,0.00873
2900.46,0.00883
2896.6,0.00900
2892.75,0.00937
2888.89,0.00979
2885.03,0.01011
2881.18,0.01018
2877.32,0.01007
2873.46,0.00995
2869.61,0.00976
2865.75,0.00957
2861.89,0.00957
2858.03,0.00973
2854.18,0.01014
2850.32,0.01073
2846.46,0.01144
2842.61,0.01235
2838.75,0.01311
2834.89,0.01379
2831.04,0.01437
2827.18,0.01494
2823.32,0.01541
2819.46,0.01563
2815.61,0.01539
2811.75,0.01487
2807.89,0.01404
2804.04,0.01317
2800.18,0.01207
2796.32,0.01093
2792.47,0.00959
2788.61,0.00827
2784.75,0.00699
2780.89,0.00581
2777.04,0.00473
2773.18,0.00388
2769.32,0.00307
2765.47,0.00241
2761.61,0.00165
2757.75,0.00094
2753.9,0.00029
2750.04,-0.00019
2746.18,-0.00037
2742.32,-0.00042
2738.47,-0.00042
2734.61,-0.00037
2730.75,-0.00032
2726.9,-0.00023
2723.04,-0.00001
2719.18,0.00012
2715.33,0.00008
2711.47,0.00005
2707.61,0.00002
2703.75,0.00034
2699.9,0.00112
2696.04,0.00234
2692.18,0.00395
2688.33,0.00582
2684.47,0.00803
2680.61,0.01040
2676.76,0.01261
2672.9,0.01437
2669.04,0.01560
2665.18,0.01617
2661.33,0.01619
2657.47,0.01578
2653.61,0.01500
2649.76,0.01403
2645.9,0.01297
2642.04,0.01196
2638.19,0.01088
2634.33,0.00997
2630.47,0.00914
2626.61,0.00837
2622.76,0.00769
2618.9,0.00716
2615.04,0.00678
2611.19,0.00651
2607.33,0.00628
2603.47,0.00611
2599.62,0.00633
2595.76,0.00664
2591.9,0.00684
2588.04,0.00711
2584.19,0.00745
2580.33,0.00822
2576.47,0.00961
2572.62,0.01174
2568.76,0.01429
2564.9,0.01709
2561.05,0.01996
2557.19,0.02207
2553.33,0.02356
2549.47,0.02446
2545.62,0.02494
2541.76,0.02495
2537.9,0.02442
2534.05,0.02350
2530.19,0.02232
2526.33,0.02092
2522.48,0.01939
2518.62,0.01778
2514.76,0.01616
2510.9,0.01467
2507.05,0.01330
2503.19,0.01194
2499.33,0.01068
2495.48,0.00949
2491.62,0.00843
2487.76,0.00741
2483.91,0.00650
2480.05,0.00576
2476.19,0.00505
2472.33,0.00437
2468.48,0.00385
2464.62,0.00335
2460.76,0.00300
2456.91,0.00251
2453.05,0.00208
2449.19,0.00164
2445.34,0.00132
2441.48,0.00098
2437.62,0.00069
2433.77,0.00042
2429.91,0.00021
2426.05,0.00009
2422.19,0.00004
2418.34,0.00001
2414.48,0.00000
2410.62,0.00010
2406.77,0.00011
2402.91,0.00002
2399.05,0.00004
2395.2,0.00003
2391.34,0.00004
2387.48,0.00001
2383.62,0.00020
2379.77,0.00143
2375.91,0.00405
2372.05,0.00753
2368.2,0.01058
2364.34,0.01246
2360.48,0.01279
2356.63,0.01139
2352.77,0.00721
2348.91,0.00271
2345.05,0.00676
2341.2,0.00888
2337.34,0.00907
2333.48,0.00865
2329.63,0.00803
2325.77,0.00677
2321.91,0.00566
2318.06,0.00412
2314.2,0.00288
2310.34,0.00192
2306.48,0.00129
2302.63,0.00092
2298.77,0.00074
2294.91,0.00059
2291.06,0.00043
2287.2,0.00039
2283.34,0.00026
2279.49,0.00020
2275.63,0.00015
2271.77,0.00006
2267.91,0.00012
2264.06,0.00016
2260.2,0.00000
2256.34,0.00005
2252.49,0.00001
2248.63,0.00000
2244.77,0.00001
2240.92,0.00009
2237.06,0.00011
2233.2,0.00008
2229.34,0.00023
2225.49,0.00021
2221.63,0.00005
2217.77,0.00005
2213.92,0.00020
2210.06,0.00009
2206.2,-0.00001
2202.35,0.00014
2198.49,0.00018
2194.63,0.00034
2190.77,0.00042
2186.92,0.00023
2183.06,0.00004
2179.2,0.00022
2175.35,0.00044
2171.49,0.00087
2167.63,0.00108
2163.78,0.00052
2159.92,0.00000
2156.06,0.00061
2152.2,0.00199
2148.35,0.00282
2144.49,0.00343
2140.63,0.00409
2136.78,0.00460
2132.92,0.00525
2129.06,0.00604
2125.21,0.00638
2121.35,0.00663
2117.49,0.00677
2113.63,0.00678
2109.78,0.00664
2105.92,0.00644
2102.06,0.00652
2098.21,0.00618
2094.35,0.00616
2090.49,0.00615
2086.64,0.00608
2082.78,0.00587
2078.92,0.00564
2075.06,0.00533
2071.21,0.00508
2067.35,0.00479
2063.49,0.00474
2059.64,0.00445
2055.78,0.00420
2051.92,0.00361
2048.07,0.00248
2044.21,0.00158
2040.35,0.00079
2036.49,0.00023
2032.64,0.00000
2028.78,-0.00002
2024.92,-0.00002
2021.07,0.00002
2017.21,0.00006
2013.35,0.00013
2009.5,0.00005
2005.64,0.00007
2001.78,0.00043
1997.92,0.00055
1994.07,0.00055
1990.21,0.00057
1986.35,0.00032
1982.5,-0.00005
1978.64,-0.00012
1974.78,-0.00002
1970.93,0.00087
1967.07,0.00248
1963.21,0.00366
1959.35,0.00378
1955.5,0.00361
1951.64,0.00296
1947.78,0.00249
1943.93,0.00215
1940.07,0.00184
1936.21,0.00166
1932.36,0.00163
1928.5,0.00140
1924.64,0.00136
1920.78,0.00134
1916.93,0.00121
1913.07,0.00103
1909.21,0.00082
1905.36,0.00075
1901.5,0.00054
1897.64,0.00036
1893.79,0.00029
1889.93,0.00028
1886.07,0.00021
1882.21,0.00016
1878.36,0.00011
1874.5,0.00009
1870.64,0.00011
1866.79,0.00015
1862.93,0.00024
1859.07,0.00018
1855.22,0.00012
1851.36,0.00005
1847.5,0.00000
1843.64,0.00017
1839.79,0.00038
1835.93,0.00068
1832.07,0.00076
1828.22,0.00069
1824.36,0.00082
1820.5,0.00121
1816.65,0.00192
1812.79,0.00294
1808.93,0.00408
1805.07,0.00534
1801.22,0.00666
1797.36,0.00796
1793.5,0.00908
1789.65,0.01004
1785.79,0.01084
1781.93,0.01143
1778.08,0.01181
1774.22,0.01225
1770.36,0.01278
1766.5,0.01354
1762.65,0.01468
1758.79,0.01640
1754.93,0.01878
1751.08,0.02191
1747.22,0.02650
1743.36,0.03397
1739.51,0.04416
1735.65,0.05674
1731.79,0.07328
1727.93,0.09376
1724.08,0.11615
1720.22,0.14012
1716.36,0.16002
1712.51,0.16461
1708.65,0.16463
1704.79,0.17268
1700.94,0.18885
1697.08,0.21258
1693.22,0.24348
1689.36,0.27741
1685.51,0.30237
1681.65,0.32258
1677.79,0.33527
1673.94,0.30639
1670.08,0.25151
1666.22,0.19762
1662.37,0.15502
1658.51,0.12460
1654.65,0.10365
1650.79,0.08906
1646.94,0.07822
1643.08,0.06876
1639.22,0.06071
1635.37,0.05415
1631.51,0.04901
1627.65,0.04490
1623.8,0.04158
1619.94,0.03913
1616.08,0.03841
1612.22,0.03853
1608.37,0.03562
1604.51,0.03026
1600.65,0.02444
1596.8,0.01952
1592.94,0.01646
1589.08,0.01484
1585.23,0.01589
1581.37,0.02408
1577.51,0.04435
1573.65,0.05056
1569.8,0.03050
1565.94,0.01713
1562.08,0.01085
1558.23,0.00700
1554.37,0.00452
1550.51,0.00280
1546.66,0.00177
1542.8,0.00126
1538.94,0.00078
1535.08,0.00031
1531.23,0.00000
1527.37,0.00008
1523.51,0.00059
1519.66,0.00144
1515.8,0.00638
1511.94,0.03294
1508.09,0.04691
1504.23,0.02776
1500.37,0.01013
1496.51,0.00271
1492.66,0.00053
1488.8,0.00007
1484.94,0.00002
1481.09,0.00075
1477.23,0.00274
1473.37,0.00787
1469.52,0.00922
1465.66,0.00523
1461.8,0.00533
1457.94,0.00682
1454.09,0.00901
1450.23,0.01076
1446.37,0.01302
1442.52,0.01781
1438.66,0.02672
1434.8,0.04109
1430.95,0.05970
1427.09,0.07794
1423.23,0.08551
1419.37,0.07601
1415.52,0.06948
1411.66,0.07855
1407.8,0.07914
1403.95,0.06016
1400.09,0.03834
1396.23,0.02515
1392.38,0.01924
1388.52,0.01831
1384.66,0.01833
1380.8,0.01534
1376.95,0.01121
1373.09,0.00817
1369.23,0.00584
1365.38,0.00314
1361.52,0.00086
1357.66,0.00000
1353.81,0.00064
1349.95,0.00524
1346.09,0.02064
1342.23,0.04889
1338.38,0.05542
1334.52,0.03929
1330.66,0.03267
1326.81,0.03440
1322.95,0.03680
1319.09,0.04451
1315.24,0.05219
1311.38,0.05116
1307.52,0.06057
1303.66,0.07783
1299.81,0.09693
1295.95,0.11113
1292.09,0.12053
1288.24,0.13033
1284.38,0.13938
1280.52,0.14388
1276.67,0.14478
1272.81,0.14733
1268.95,0.15254
1265.09,0.15856
1261.24,0.16492
1257.38,0.17294
1253.52,0.18442
1249.67,0.19620
1245.81,0.20286
1241.95,0.20237
1238.1,0.19477
1234.24,0.18236
1230.38,0.16887
1226.52,0.15714
1222.67,0.14829
1218.81,0.13845
1214.95,0.12782
1211.1,0.11964
1207.24,0.11267
1203.38,0.10500
1199.53,0.09630
1195.67,0.08739
1191.81,0.07888
1187.95,0.07111
1184.1,0.06435
1180.24,0.05821
1176.38,0.05147
1172.53,0.04341
1168.67,0.03430
1164.81,0.02555
1160.96,0.01804
1157.1,0.01209
1153.24,0.00825
1149.39,0.00692
1145.53,0.00932
1141.67,0.01880
1137.81,0.04012
1133.96,0.06712
1130.1,0.09436
1126.24,0.11617
1122.39,0.12586
1118.53,0.12428
1114.67,0.12453
1110.82,0.13694
1106.96,0.14299
1103.1,0.14586
1099.24,0.14416
1095.39,0.13809
1091.53,0.12943
1087.67,0.12134
1083.82,0.11477
1079.96,0.10759
1076.1,0.09943
1072.25,0.09162
1068.39,0.08395
1064.53,0.07610
1060.67,0.06834
1056.82,0.06124
1052.96,0.05519
1049.1,0.05007
1045.25,0.04512
1041.39,0.03969
1037.53,0.03294
1033.68,0.02399
1029.82,0.01322
1025.96,0.02150
1022.1,0.07242
1018.25,0.10119
1014.39,0.08553
1010.53,0.06403
1006.68,0.04993
1002.82,0.04125
998.962,0.03532
995.105,0.03115
991.248,0.02895
987.391,0.03054
983.534,0.02694
979.677,0.02507
975.82,0.02826
971.963,0.03837
968.106,0.04572
964.249,0.04626
960.392,0.04590
956.535,0.04676
952.678,0.04902
948.821,0.05215
944.964,0.05522
941.107,0.05703
937.25,0.05667
933.393,0.05395
929.536,0.04927
925.679,0.04344
921.822,0.03717
917.965,0.03118
914.108,0.02580
910.251,0.02122
906.394,0.01744
902.537,0.01445
898.68,0.01171
894.823,0.00854
890.966,0.00569
887.109,0.00819
883.252,0.02410
879.395,0.03686
875.538,0.03382
871.681,0.05320
867.824,0.02738
863.967,0.01376
860.11,0.01090
856.253,0.01229
852.396,0.01352
848.539,0.01787
844.682,0.01963
840.825,0.01500
836.968,0.01021
833.111,0.00671
829.254,0.00397
825.397,0.00193
821.54,0.00070
817.683,0.00010
813.826,-0.00006
809.969,-0.00019
806.112,0.00026
802.255,0.00206
798.398,0.00479
794.541,0.00907
790.684,0.01222
786.827,0.01887
782.97,0.03514
779.113,0.03501
775.256,0.02459
771.399,0.01681
767.542,0.01181
763.685,0.00932
759.828,0.00777
755.971,0.00589
752.114,0.00364
748.257,0.00165
744.4,0.00000
740.543,0.00529
736.686,0.03922
732.829,0.09457
728.972,0.13473
725.115,0.16551
721.258,0.15628
717.401,0.12410
713.544,0.09749
709.687,0.07796
705.83,0.06264
701.973,0.05167
698.116,0.04320
694.259,0.03774
690.402,0.03386
686.545,0.03070
682.688,0.02778
678.831,0.02539
674.974,0.02319
671.117,0.02069
667.26,0.01904
663.403,0.01353
659.546,0.00993
655.689,0.00588
651.832,0.00198
649.904,0.00000