File: Exploratory-Data-Science/Model Testing of Backsheet Color and FTIR Data/FTIR/XENON1-FTIR/Arkema XENON 2000HR PET 3.019-1.SPA.dpt
3999.71,0.00115
3995.85,0.00104
3991.99,0.00085
3988.13,0.00072
3984.28,0.00063
3980.42,0.00044
3976.56,0.00042
3972.71,0.00036
3968.85,0.00023
3964.99,0.00029
3961.14,0.00021
3957.28,0.00011
3953.42,0.00005
3949.56,0.00000
3945.71,-0.00003
3941.85,-0.00007
3937.99,-0.00011
3934.14,-0.00025
3930.28,-0.00018
3926.42,-0.00027
3922.57,-0.00017
3918.71,-0.00009
3914.85,-0.00004
3910.99,-0.00007
3907.14,-0.00008
3903.28,-0.00002
3899.42,0.00002
3895.57,-0.00003
3891.71,-0.00004
3887.85,-0.00012
3884,-0.00021
3880.14,-0.00024
3876.28,-0.00018
3872.42,-0.00018
3868.57,-0.00016
3864.71,-0.00019
3860.85,-0.00020
3857,-0.00011
3853.14,-0.00002
3849.28,-0.00004
3845.43,0.00000
3841.57,-0.00005
3837.71,-0.00001
3833.85,-0.00010
3830,-0.00016
3826.14,-0.00014
3822.28,-0.00009
3818.43,-0.00005
3814.57,-0.00015
3810.71,-0.00006
3806.86,-0.00015
3803,-0.00008
3799.14,-0.00003
3795.28,0.00000
3791.43,-0.00005
3787.57,-0.00005
3783.71,-0.00001
3779.86,-0.00011
3776,-0.00013
3772.14,-0.00006
3768.29,-0.00004
3764.43,-0.00008
3760.57,-0.00009
3756.72,-0.00003
3752.86,-0.00005
3749,0.00001
3745.14,-0.00006
3741.29,0.00000
3737.43,-0.00002
3733.57,0.00001
3729.72,-0.00002
3725.86,-0.00009
3722,-0.00019
3718.15,-0.00017
3714.29,-0.00014
3710.43,-0.00021
3706.57,-0.00012
3702.72,-0.00012
3698.86,-0.00006
3695,-0.00005
3691.15,0.00000
3687.29,-0.00008
3683.43,-0.00011
3679.58,-0.00018
3675.72,-0.00029
3671.86,-0.00044
3668,-0.00035
3664.15,-0.00036
3660.29,-0.00045
3656.43,-0.00017
3652.58,-0.00024
3648.72,-0.00017
3644.86,0.00001
3641.01,0.00000
3637.15,0.00011
3633.29,0.00001
3629.43,0.00004
3625.58,-0.00005
3621.72,0.00003
3617.86,0.00003
3614.01,-0.00010
3610.15,-0.00008
3606.29,0.00002
3602.44,-0.00008
3598.58,-0.00016
3594.72,-0.00003
3590.86,-0.00007
3587.01,-0.00000
3583.15,0.00004
3579.29,-0.00008
3575.44,-0.00012
3571.58,-0.00009
3567.72,-0.00019
3563.87,-0.00019
3560.01,-0.00016
3556.15,-0.00015
3552.29,-0.00019
3548.44,-0.00011
3544.58,-0.00005
3540.72,0.00001
3536.87,-0.00005
3533.01,0.00000
3529.15,-0.00007
3525.3,-0.00004
3521.44,-0.00011
3517.58,-0.00001
3513.72,-0.00000
3509.87,-0.00005
3506.01,-0.00006
3502.15,0.00004
3498.3,0.00007
3494.44,0.00004
3490.58,0.00005
3486.73,0.00008
3482.87,0.00007
3479.01,0.00004
3475.15,0.00001
3471.3,-0.00001
3467.44,-0.00010
3463.58,-0.00018
3459.73,-0.00022
3455.87,-0.00014
3452.01,-0.00022
3448.16,-0.00019
3444.3,-0.00029
3440.44,-0.00019
3436.58,-0.00010
3432.73,-0.00000
3428.87,0.00000
3425.01,-0.00004
3421.16,-0.00018
3417.3,-0.00021
3413.44,-0.00014
3409.59,-0.00015
3405.73,-0.00022
3401.87,-0.00023
3398.01,-0.00016
3394.16,-0.00011
3390.3,-0.00012
3386.44,-0.00008
3382.59,-0.00003
3378.73,0.00002
3374.87,-0.00003
3371.02,-0.00009
3367.16,-0.00013
3363.3,-0.00012
3359.44,-0.00026
3355.59,-0.00022
3351.73,-0.00021
3347.87,-0.00028
3344.02,-0.00022
3340.16,-0.00014
3336.3,-0.00013
3332.45,-0.00002
3328.59,0.00000
3324.73,0.00010
3320.87,-0.00003
3317.02,0.00009
3313.16,-0.00001
3309.3,-0.00008
3305.45,-0.00005
3301.59,0.00002
3297.73,0.00002
3293.88,-0.00004
3290.02,0.00003
3286.16,-0.00001
3282.3,0.00003
3278.45,0.00007
3274.59,0.00002
3270.73,-0.00002
3266.88,-0.00006
3263.02,-0.00014
3259.16,-0.00006
3255.31,-0.00017
3251.45,-0.00011
3247.59,-0.00022
3243.73,-0.00022
3239.88,-0.00027
3236.02,-0.00022
3232.16,-0.00014
3228.31,-0.00006
3224.45,-0.00006
3220.59,0.00000
3216.74,-0.00001
3212.88,-0.00009
3209.02,-0.00008
3205.16,-0.00010
3201.31,-0.00008
3197.45,-0.00008
3193.59,-0.00009
3189.74,-0.00005
3185.88,-0.00009
3182.02,-0.00005
3178.17,-0.00009
3174.31,-0.00006
3170.45,-0.00003
3166.59,-0.00002
3162.74,-0.00006
3158.88,-0.00006
3155.02,-0.00019
3151.17,-0.00022
3147.31,-0.00022
3143.45,-0.00020
3139.6,-0.00019
3135.74,-0.00012
3131.88,-0.00008
3128.02,-0.00007
3124.17,-0.00006
3120.31,-0.00003
3116.45,0.00006
3112.6,0.00024
3108.74,0.00078
3104.88,0.00179
3101.03,0.00191
3097.17,0.00147
3093.31,0.00138
3089.45,0.00166
3085.6,0.00198
3081.74,0.00236
3077.88,0.00301
3074.03,0.00381
3070.17,0.00472
3066.31,0.00595
3062.46,0.00671
3058.6,0.00522
3054.74,0.00347
3050.88,0.00253
3047.03,0.00192
3043.17,0.00170
3039.31,0.00175
3035.46,0.00187
3031.6,0.00203
3027.74,0.00230
3023.89,0.00260
3020.03,0.00305
3016.17,0.00359
3012.31,0.00414
3008.46,0.00460
3004.6,0.00486
3000.74,0.00521
2996.89,0.00558
2993.03,0.00598
2989.17,0.00639
2985.32,0.00675
2981.46,0.00704
2977.6,0.00729
2973.74,0.00759
2969.89,0.00785
2966.03,0.00787
2962.17,0.00754
2958.32,0.00728
2954.46,0.00705
2950.6,0.00682
2946.75,0.00653
2942.89,0.00614
2939.03,0.00578
2935.17,0.00534
2931.32,0.00478
2927.46,0.00440
2923.6,0.00421
2919.75,0.00419
2915.89,0.00430
2912.03,0.00461
2908.18,0.00526
2904.32,0.00575
2900.46,0.00588
2896.6,0.00600
2892.75,0.00632
2888.89,0.00667
2885.03,0.00695
2881.18,0.00708
2877.32,0.00708
2873.46,0.00695
2869.61,0.00689
2865.75,0.00675
2861.89,0.00673
2858.03,0.00689
2854.18,0.00722
2850.32,0.00768
2846.46,0.00830
2842.61,0.00899
2838.75,0.00956
2834.89,0.01017
2831.04,0.01071
2827.18,0.01124
2823.32,0.01167
2819.46,0.01196
2815.61,0.01197
2811.75,0.01175
2807.89,0.01131
2804.04,0.01078
2800.18,0.01003
2796.32,0.00923
2792.47,0.00832
2788.61,0.00736
2784.75,0.00642
2780.89,0.00549
2777.04,0.00466
2773.18,0.00396
2769.32,0.00329
2765.47,0.00273
2761.61,0.00210
2757.75,0.00150
2753.9,0.00093
2750.04,0.00047
2746.18,0.00019
2742.32,0.00001
2738.47,0.00001
2734.61,0.00004
2730.75,0.00006
2726.9,0.00012
2723.04,0.00025
2719.18,0.00034
2715.33,0.00028
2711.47,0.00024
2707.61,0.00020
2703.75,0.00035
2699.9,0.00085
2696.04,0.00167
2692.18,0.00286
2688.33,0.00425
2684.47,0.00590
2680.61,0.00777
2676.76,0.00956
2672.9,0.01106
2669.04,0.01220
2665.18,0.01288
2661.33,0.01312
2657.47,0.01301
2653.61,0.01263
2649.76,0.01202
2645.9,0.01129
2642.04,0.01060
2638.19,0.00984
2634.33,0.00915
2630.47,0.00848
2626.61,0.00791
2622.76,0.00741
2618.9,0.00696
2615.04,0.00662
2611.19,0.00633
2607.33,0.00614
2603.47,0.00594
2599.62,0.00605
2595.76,0.00623
2591.9,0.00628
2588.04,0.00636
2584.19,0.00658
2580.33,0.00707
2576.47,0.00800
2572.62,0.00952
2568.76,0.01156
2564.9,0.01383
2561.05,0.01615
2557.19,0.01806
2553.33,0.01947
2549.47,0.02037
2545.62,0.02103
2541.76,0.02126
2537.9,0.02114
2534.05,0.02061
2530.19,0.01986
2526.33,0.01899
2522.48,0.01786
2518.62,0.01664
2514.76,0.01547
2510.9,0.01422
2507.05,0.01315
2503.19,0.01201
2499.33,0.01098
2495.48,0.00993
2491.62,0.00900
2487.76,0.00812
2483.91,0.00736
2480.05,0.00658
2476.19,0.00595
2472.33,0.00529
2468.48,0.00480
2464.62,0.00434
2460.76,0.00398
2456.91,0.00347
2453.05,0.00305
2449.19,0.00260
2445.34,0.00216
2441.48,0.00176
2437.62,0.00150
2433.77,0.00126
2429.91,0.00106
2426.05,0.00079
2422.19,0.00066
2418.34,0.00041
2414.48,0.00035
2410.62,0.00035
2406.77,0.00028
2402.91,0.00021
2399.05,0.00014
2395.2,0.00010
2391.34,0.00004
2387.48,0.00003
2383.62,0.00000
2379.77,0.00003
2375.91,0.00021
2372.05,0.00042
2368.2,0.00053
2364.34,0.00064
2360.48,0.00063
2356.63,0.00054
2352.77,0.00028
2348.91,-0.00001
2345.05,0.00030
2341.2,0.00053
2337.34,0.00064
2333.48,0.00060
2329.63,0.00052
2325.77,0.00044
2321.91,0.00050
2318.06,0.00038
2314.2,0.00035
2310.34,0.00037
2306.48,0.00040
2302.63,0.00050
2298.77,0.00047
2294.91,0.00054
2291.06,0.00058
2287.2,0.00063
2283.34,0.00063
2279.49,0.00050
2275.63,0.00051
2271.77,0.00030
2267.91,0.00021
2264.06,0.00018
2260.2,0.00004
2256.34,0.00005
2252.49,0.00007
2248.63,0.00002
2244.77,0.00000
2240.92,0.00005
2237.06,0.00009
2233.2,0.00012
2229.34,0.00015
2225.49,0.00020
2221.63,0.00011
2217.77,0.00014
2213.92,0.00026
2210.06,0.00011
2206.2,-0.00000
2202.35,0.00021
2198.49,0.00021
2194.63,0.00040
2190.77,0.00040
2186.92,0.00031
2183.06,0.00006
2179.2,0.00039
2175.35,0.00068
2171.49,0.00101
2167.63,0.00118
2163.78,0.00074
2159.92,0.00000
2156.06,0.00069
2152.2,0.00208
2148.35,0.00267
2144.49,0.00321
2140.63,0.00390
2136.78,0.00423
2132.92,0.00481
2129.06,0.00553
2125.21,0.00579
2121.35,0.00608
2117.49,0.00626
2113.63,0.00631
2109.78,0.00622
2105.92,0.00596
2102.06,0.00608
2098.21,0.00583
2094.35,0.00580
2090.49,0.00572
2086.64,0.00564
2082.78,0.00551
2078.92,0.00535
2075.06,0.00510
2071.21,0.00482
2067.35,0.00465
2063.49,0.00454
2059.64,0.00424
2055.78,0.00389
2051.92,0.00345
2048.07,0.00254
2044.21,0.00156
2040.35,0.00078
2036.49,0.00035
2032.64,0.00011
2028.78,-0.00001
2024.92,0.00001
2021.07,0.00000
2017.21,0.00014
2013.35,0.00016
2009.5,0.00007
2005.64,-0.00006
2001.78,0.00026
1997.92,0.00055
1994.07,0.00051
1990.21,0.00054
1986.35,0.00029
1982.5,-0.00005
1978.64,-0.00015
1974.78,-0.00019
1970.93,0.00039
1967.07,0.00145
1963.21,0.00237
1959.35,0.00251
1955.5,0.00268
1951.64,0.00230
1947.78,0.00199
1943.93,0.00180
1940.07,0.00154
1936.21,0.00144
1932.36,0.00142
1928.5,0.00132
1924.64,0.00132
1920.78,0.00116
1916.93,0.00105
1913.07,0.00091
1909.21,0.00069
1905.36,0.00062
1901.5,0.00052
1897.64,0.00031
1893.79,0.00015
1889.93,0.00018
1886.07,0.00010
1882.21,0.00006
1878.36,0.00003
1874.5,0.00001
1870.64,0.00002
1866.79,0.00010
1862.93,0.00015
1859.07,0.00015
1855.22,0.00012
1851.36,0.00003
1847.5,0.00000
1843.64,0.00014
1839.79,0.00036
1835.93,0.00063
1832.07,0.00066
1828.22,0.00059
1824.36,0.00061
1820.5,0.00074
1816.65,0.00118
1812.79,0.00184
1808.93,0.00259
1805.07,0.00344
1801.22,0.00428
1797.36,0.00514
1793.5,0.00583
1789.65,0.00642
1785.79,0.00695
1781.93,0.00728
1778.08,0.00748
1774.22,0.00769
1770.36,0.00796
1766.5,0.00842
1762.65,0.00916
1758.79,0.01032
1754.93,0.01199
1751.08,0.01420
1747.22,0.01741
1743.36,0.02265
1739.51,0.02988
1735.65,0.03892
1731.79,0.05074
1727.93,0.06475
1724.08,0.07862
1720.22,0.09120
1716.36,0.10000
1712.51,0.10146
1708.65,0.10275
1704.79,0.10977
1700.94,0.12204
1697.08,0.13913
1693.22,0.16092
1689.36,0.18518
1685.51,0.20426
1681.65,0.22205
1677.79,0.23854
1673.94,0.22542
1670.08,0.18874
1666.22,0.14955
1662.37,0.11764
1658.51,0.09452
1654.65,0.07846
1650.79,0.06721
1646.94,0.05884
1643.08,0.05154
1639.22,0.04541
1635.37,0.04044
1631.51,0.03647
1627.65,0.03328
1623.8,0.03063
1619.94,0.02863
1616.08,0.02789
1612.22,0.02781
1608.37,0.02575
1604.51,0.02196
1600.65,0.01765
1596.8,0.01389
1592.94,0.01151
1589.08,0.01022
1585.23,0.01114
1581.37,0.01810
1577.51,0.03582
1573.65,0.04306
1569.8,0.02624
1565.94,0.01448
1562.08,0.00900
1558.23,0.00569
1554.37,0.00365
1550.51,0.00227
1546.66,0.00142
1542.8,0.00099
1538.94,0.00059
1535.08,0.00023
1531.23,0.00000
1527.37,0.00010
1523.51,0.00057
1519.66,0.00144
1515.8,0.00559
1511.94,0.02799
1508.09,0.04025
1504.23,0.02317
1500.37,0.00864
1496.51,0.00243
1492.66,0.00060
1488.8,0.00012
1484.94,0.00000
1481.09,0.00026
1477.23,0.00138
1473.37,0.00449
1469.52,0.00540
1465.66,0.00326
1461.8,0.00355
1457.94,0.00467
1454.09,0.00628
1450.23,0.00766
1446.37,0.00952
1442.52,0.01333
1438.66,0.02044
1434.8,0.03205
1430.95,0.04737
1427.09,0.06320
1423.23,0.07142
1419.37,0.06450
1415.52,0.05753
1411.66,0.06264
1407.8,0.06284
1403.95,0.04854
1400.09,0.03147
1396.23,0.02077
1392.38,0.01576
1388.52,0.01476
1384.66,0.01474
1380.8,0.01234
1376.95,0.00893
1373.09,0.00642
1369.23,0.00459
1365.38,0.00255
1361.52,0.00078
1357.66,0.00004
1353.81,0.00038
1349.95,0.00356
1346.09,0.01466
1342.23,0.03646
1338.38,0.04502
1334.52,0.03377
1330.66,0.02781
1326.81,0.02887
1322.95,0.03028
1319.09,0.03601
1315.24,0.04214
1311.38,0.03961
1307.52,0.04549
1303.66,0.05835
1299.81,0.07363
1295.95,0.08567
1292.09,0.09294
1288.24,0.09889
1284.38,0.10342
1280.52,0.10434
1276.67,0.10292
1272.81,0.10377
1268.95,0.10756
1265.09,0.11243
1261.24,0.11786
1257.38,0.12493
1253.52,0.13522
1249.67,0.14701
1245.81,0.15596
1241.95,0.16000
1238.1,0.15845
1234.24,0.15223
1230.38,0.14386
1226.52,0.13562
1222.67,0.12906
1218.81,0.12199
1214.95,0.11385
1211.1,0.10733
1207.24,0.10191
1203.38,0.09586
1199.53,0.08873
1195.67,0.08116
1191.81,0.07367
1187.95,0.06659
1184.1,0.06019
1180.24,0.05418
1176.38,0.04769
1172.53,0.04022
1168.67,0.03189
1164.81,0.02374
1160.96,0.01656
1157.1,0.01078
1153.24,0.00687
1149.39,0.00501
1145.53,0.00603
1141.67,0.01234
1137.81,0.02767
1133.96,0.04737
1130.1,0.06828
1126.24,0.08746
1122.39,0.09865
1118.53,0.10118
1114.67,0.10119
1110.82,0.10836
1106.96,0.11454
1103.1,0.11914
1099.24,0.12038
1095.39,0.11809
1091.53,0.11327
1087.67,0.10797
1083.82,0.10350
1079.96,0.09861
1076.1,0.09284
1072.25,0.08714
1068.39,0.08136
1064.53,0.07522
1060.67,0.06888
1056.82,0.06280
1052.96,0.05726
1049.1,0.05224
1045.25,0.04728
1041.39,0.04179
1037.53,0.03494
1033.68,0.02560
1029.82,0.01329
1025.96,0.01622
1022.1,0.05915
1018.25,0.09069
1014.39,0.08350
1010.53,0.06770
1006.68,0.05565
1002.82,0.04762
998.962,0.04183
995.105,0.03734
991.248,0.03432
987.391,0.03473
983.534,0.03111
979.677,0.02828
975.82,0.02972
971.963,0.03774
968.106,0.04508
964.249,0.04666
960.392,0.04665
956.535,0.04723
952.678,0.04877
948.821,0.05094
944.964,0.05307
941.107,0.05412
937.25,0.05346
933.393,0.05094
929.536,0.04687
925.679,0.04189
921.822,0.03661
917.965,0.03153
914.108,0.02695
910.251,0.02298
906.394,0.01961
902.537,0.01684
898.68,0.01434
894.823,0.01150
890.966,0.00885
887.109,0.01009
883.252,0.02239
879.395,0.03202
875.538,0.02838
871.681,0.04217
867.824,0.02298
863.967,0.01220
860.11,0.00940
856.253,0.00998
852.396,0.01073
848.539,0.01432
844.682,0.01652
840.825,0.01337
836.968,0.00958
833.111,0.00671
829.254,0.00429
825.397,0.00237
821.54,0.00109
817.683,0.00031
813.826,0.00000
809.969,-0.00009
806.112,0.00004
802.255,0.00126
798.398,0.00325
794.541,0.00670
790.684,0.00952
786.827,0.01579
782.97,0.03211
779.113,0.03381
775.256,0.02434
771.399,0.01678
767.542,0.01176
763.685,0.00908
759.828,0.00729
755.971,0.00540
752.114,0.00329
748.257,0.00114
744.4,0.00000
740.543,0.00348
736.686,0.03154
732.829,0.07625
728.972,0.10690
725.115,0.12937
721.258,0.12138
717.401,0.09724
713.544,0.07735
709.687,0.06258
705.83,0.05089
701.973,0.04242
698.116,0.03571
694.259,0.03135
690.402,0.02824
686.545,0.02558
682.688,0.02313
678.831,0.02116
674.974,0.01947
671.117,0.01746
667.26,0.01489
663.403,0.01175
659.546,0.00862
655.689,0.00503
651.832,0.00167
649.904,0.00000