File: Exploratory-Data-Science/Model Testing of Backsheet Color and FTIR Data/FTIR/XENON1-FTIR/Arkema XENON 0HR PET 3.011-1.SPA.dpt
3999.71,0.00260
3995.85,0.00229
3991.99,0.00203
3988.13,0.00181
3984.28,0.00157
3980.42,0.00129
3976.56,0.00109
3972.71,0.00091
3968.85,0.00067
3964.99,0.00059
3961.14,0.00038
3957.28,0.00026
3953.42,0.00022
3949.56,0.00000
3945.71,-0.00016
3941.85,-0.00028
3937.99,-0.00030
3934.14,-0.00030
3930.28,-0.00034
3926.42,-0.00034
3922.57,-0.00033
3918.71,-0.00027
3914.85,-0.00028
3910.99,-0.00020
3907.14,-0.00019
3903.28,0.00000
3899.42,0.00008
3895.57,-0.00014
3891.71,-0.00014
3887.85,-0.00036
3884,-0.00042
3880.14,-0.00038
3876.28,-0.00043
3872.42,-0.00038
3868.57,-0.00031
3864.71,-0.00038
3860.85,-0.00042
3857,-0.00032
3853.14,0.00009
3849.28,-0.00014
3845.43,0.00000
3841.57,-0.00010
3837.71,-0.00010
3833.85,-0.00028
3830,-0.00037
3826.14,-0.00043
3822.28,-0.00039
3818.43,-0.00041
3814.57,-0.00027
3810.71,-0.00025
3806.86,-0.00008
3803,-0.00006
3799.14,-0.00003
3795.28,0.00003
3791.43,-0.00008
3787.57,-0.00028
3783.71,-0.00030
3779.86,-0.00025
3776,-0.00025
3772.14,-0.00021
3768.29,-0.00014
3764.43,-0.00019
3760.57,-0.00005
3756.72,-0.00000
3752.86,0.00006
3749,0.00018
3745.14,0.00012
3741.29,0.00000
3737.43,-0.00010
3733.57,-0.00025
3729.72,-0.00049
3725.86,-0.00057
3722,-0.00066
3718.15,-0.00063
3714.29,-0.00055
3710.43,-0.00066
3706.57,-0.00068
3702.72,-0.00051
3698.86,-0.00036
3695,-0.00012
3691.15,0.00015
3687.29,0.00041
3683.43,0.00009
3679.58,-0.00010
3675.72,-0.00033
3671.86,-0.00049
3668,-0.00062
3664.15,-0.00064
3660.29,-0.00060
3656.43,-0.00042
3652.58,-0.00024
3648.72,-0.00008
3644.86,-0.00025
3641.01,-0.00008
3637.15,0.00000
3633.29,-0.00010
3629.43,-0.00009
3625.58,-0.00029
3621.72,-0.00033
3617.86,-0.00032
3614.01,-0.00038
3610.15,-0.00051
3606.29,-0.00068
3602.44,-0.00073
3598.58,-0.00070
3594.72,-0.00053
3590.86,-0.00034
3587.01,-0.00005
3583.15,-0.00004
3579.29,-0.00005
3575.44,-0.00012
3571.58,0.00005
3567.72,0.00012
3563.87,0.00010
3560.01,0.00025
3556.15,0.00026
3552.29,0.00030
3548.44,0.00034
3544.58,0.00024
3540.72,0.00022
3536.87,0.00005
3533.01,0.00003
3529.15,-0.00009
3525.3,-0.00017
3521.44,-0.00012
3517.58,-0.00033
3513.72,-0.00047
3509.87,-0.00048
3506.01,-0.00040
3502.15,-0.00044
3498.3,-0.00029
3494.44,-0.00033
3490.58,-0.00026
3486.73,-0.00017
3482.87,-0.00005
3479.01,-0.00009
3475.15,-0.00017
3471.3,-0.00031
3467.44,-0.00037
3463.58,-0.00025
3459.73,-0.00003
3455.87,0.00004
3452.01,0.00032
3448.16,0.00076
3444.3,0.00123
3440.44,0.00199
3436.58,0.00321
3432.73,0.00475
3428.87,0.00509
3425.01,0.00389
3421.16,0.00261
3417.3,0.00160
3413.44,0.00086
3409.59,0.00041
3405.73,0.00005
3401.87,-0.00015
3398.01,-0.00033
3394.16,-0.00035
3390.3,-0.00030
3386.44,-0.00018
3382.59,-0.00001
3378.73,0.00016
3374.87,0.00015
3371.02,-0.00004
3367.16,-0.00014
3363.3,-0.00031
3359.44,-0.00033
3355.59,-0.00033
3351.73,-0.00022
3347.87,0.00002
3344.02,0.00019
3340.16,0.00033
3336.3,0.00044
3332.45,0.00039
3328.59,0.00023
3324.73,0.00000
3320.87,-0.00020
3317.02,-0.00034
3313.16,-0.00039
3309.3,-0.00035
3305.45,-0.00028
3301.59,-0.00019
3297.73,-0.00010
3293.88,-0.00014
3290.02,-0.00021
3286.16,-0.00021
3282.3,-0.00017
3278.45,-0.00016
3274.59,-0.00007
3270.73,-0.00007
3266.88,-0.00029
3263.02,-0.00025
3259.16,-0.00032
3255.31,-0.00037
3251.45,-0.00031
3247.59,-0.00037
3243.73,-0.00031
3239.88,-0.00027
3236.02,-0.00011
3232.16,-0.00004
3228.31,-0.00010
3224.45,-0.00011
3220.59,0.00000
3216.74,-0.00035
3212.88,-0.00045
3209.02,-0.00045
3205.16,-0.00051
3201.31,-0.00054
3197.45,-0.00050
3193.59,-0.00042
3189.74,-0.00036
3185.88,-0.00026
3182.02,-0.00037
3178.17,-0.00028
3174.31,-0.00013
3170.45,-0.00005
3166.59,-0.00009
3162.74,-0.00019
3158.88,-0.00045
3155.02,-0.00048
3151.17,-0.00048
3147.31,-0.00055
3143.45,-0.00056
3139.6,-0.00044
3135.74,-0.00036
3131.88,-0.00005
3128.02,0.00016
3124.17,0.00009
3120.31,-0.00010
3116.45,0.00002
3112.6,0.00014
3108.74,0.00054
3104.88,0.00099
3101.03,0.00114
3097.17,0.00054
3093.31,0.00009
3089.45,0.00024
3085.6,0.00072
3081.74,0.00124
3077.88,0.00137
3074.03,0.00138
3070.17,0.00182
3066.31,0.00190
3062.46,0.00195
3058.6,0.00274
3054.74,0.00380
3050.88,0.00300
3047.03,0.00136
3043.17,0.00026
3039.31,-0.00024
3035.46,-0.00025
3031.6,-0.00011
3027.74,0.00000
3023.89,0.00041
3020.03,0.00160
3016.17,0.00348
3012.31,0.00412
3008.46,0.00363
3004.6,0.00349
3000.74,0.00354
2996.89,0.00383
2993.03,0.00432
2989.17,0.00524
2985.32,0.00695
2981.46,0.00952
2977.6,0.01337
2973.74,0.01869
2969.89,0.02280
2966.03,0.02194
2962.17,0.01952
2958.32,0.01735
2954.46,0.01501
2950.6,0.01224
2946.75,0.00951
2942.89,0.00706
2939.03,0.00555
2935.17,0.00492
2931.32,0.00479
2927.46,0.00458
2923.6,0.00367
2919.75,0.00195
2915.89,0.00172
2912.03,0.00690
2908.18,0.01192
2904.32,0.01137
2900.46,0.00781
2896.6,0.00566
2892.75,0.00487
2888.89,0.00469
2885.03,0.00434
2881.18,0.00382
2877.32,0.00351
2873.46,0.00354
2869.61,0.00364
2865.75,0.00379
2861.89,0.00405
2858.03,0.00432
2854.18,0.00383
2850.32,0.00099
2846.46,-0.00026
2842.61,0.00088
2838.75,0.00081
2834.89,0.00057
2831.04,0.00024
2827.18,0.00003
2823.32,0.00005
2819.46,0.00013
2815.61,0.00022
2811.75,0.00033
2807.89,0.00045
2804.04,0.00060
2800.18,0.00052
2796.32,0.00026
2792.47,0.00009
2788.61,-0.00004
2784.75,-0.00019
2780.89,-0.00022
2777.04,-0.00027
2773.18,-0.00030
2769.32,-0.00020
2765.47,-0.00012
2761.61,-0.00006
2757.75,0.00000
2753.9,0.00011
2750.04,0.00014
2746.18,0.00017
2742.32,0.00017
2738.47,0.00006
2734.61,-0.00005
2730.75,-0.00018
2726.9,-0.00026
2723.04,-0.00026
2719.18,-0.00019
2715.33,-0.00016
2711.47,-0.00020
2707.61,-0.00013
2703.75,-0.00004
2699.9,0.00000
2696.04,-0.00007
2692.18,-0.00020
2688.33,-0.00034
2684.47,-0.00038
2680.61,-0.00042
2676.76,-0.00036
2672.9,-0.00032
2669.04,-0.00026
2665.18,-0.00020
2661.33,-0.00013
2657.47,-0.00012
2653.61,-0.00004
2649.76,-0.00001
2645.9,0.00000
2642.04,0.00001
2638.19,0.00017
2634.33,0.00025
2630.47,0.00029
2626.61,0.00015
2622.76,-0.00001
2618.9,-0.00014
2615.04,-0.00016
2611.19,-0.00015
2607.33,-0.00011
2603.47,-0.00008
2599.62,-0.00003
2595.76,0.00000
2591.9,0.00004
2588.04,0.00007
2584.19,0.00005
2580.33,-0.00006
2576.47,-0.00011
2572.62,-0.00014
2568.76,-0.00019
2564.9,-0.00006
2561.05,-0.00007
2557.19,-0.00010
2553.33,-0.00008
2549.47,-0.00002
2545.62,0.00000
2541.76,0.00008
2537.9,0.00015
2534.05,0.00024
2530.19,0.00019
2526.33,0.00012
2522.48,0.00006
2518.62,-0.00002
2514.76,-0.00006
2510.9,-0.00004
2507.05,0.00010
2503.19,0.00014
2499.33,0.00025
2495.48,0.00020
2491.62,0.00016
2487.76,0.00011
2483.91,0.00005
2480.05,0.00003
2476.19,0.00000
2472.33,0.00005
2468.48,0.00004
2464.62,0.00006
2460.76,0.00006
2456.91,0.00015
2453.05,0.00020
2449.19,0.00020
2445.34,0.00046
2441.48,0.00058
2437.62,0.00093
2433.77,0.00126
2429.91,0.00170
2426.05,0.00222
2422.19,0.00275
2418.34,0.00328
2414.48,0.00383
2410.62,0.00441
2406.77,0.00495
2402.91,0.00552
2399.05,0.00612
2395.2,0.00673
2391.34,0.00725
2387.48,0.00771
2383.62,0.00788
2379.77,0.00730
2375.91,0.00569
2372.05,0.00347
2368.2,0.00149
2364.34,0.00031
2360.48,0.00000
2356.63,0.00041
2352.77,0.00267
2348.91,0.00543
2345.05,0.00237
2341.2,0.00074
2337.34,0.00062
2333.48,0.00069
2329.63,0.00075
2325.77,0.00139
2321.91,0.00187
2318.06,0.00253
2314.2,0.00311
2310.34,0.00371
2306.48,0.00418
2302.63,0.00458
2298.77,0.00488
2294.91,0.00514
2291.06,0.00531
2287.2,0.00537
2283.34,0.00517
2279.49,0.00473
2275.63,0.00430
2271.77,0.00398
2267.91,0.00376
2264.06,0.00351
2260.2,0.00314
2256.34,0.00275
2252.49,0.00250
2248.63,0.00215
2244.77,0.00169
2240.92,0.00131
2237.06,0.00106
2233.2,0.00100
2229.34,0.00110
2225.49,0.00109
2221.63,0.00085
2217.77,0.00085
2213.92,0.00072
2210.06,0.00078
2206.2,0.00065
2202.35,0.00032
2198.49,0.00033
2194.63,0.00005
2190.77,0.00009
2186.92,0.00005
2183.06,0.00000
2179.2,0.00024
2175.35,0.00063
2171.49,0.00080
2167.63,0.00085
2163.78,0.00062
2159.92,0.00001
2156.06,0.00102
2152.2,0.00327
2148.35,0.00435
2144.49,0.00555
2140.63,0.00637
2136.78,0.00707
2132.92,0.00785
2129.06,0.00886
2125.21,0.00967
2121.35,0.01035
2117.49,0.01066
2113.63,0.01086
2109.78,0.01055
2105.92,0.01048
2102.06,0.01039
2098.21,0.01005
2094.35,0.00998
2090.49,0.00970
2086.64,0.00941
2082.78,0.00892
2078.92,0.00829
2075.06,0.00773
2071.21,0.00726
2067.35,0.00656
2063.49,0.00623
2059.64,0.00576
2055.78,0.00512
2051.92,0.00432
2048.07,0.00273
2044.21,0.00163
2040.35,0.00110
2036.49,0.00054
2032.64,0.00003
2028.78,-0.00002
2024.92,-0.00003
2021.07,0.00000
2017.21,0.00025
2013.35,0.00045
2009.5,0.00025
2005.64,0.00055
2001.78,0.00102
1997.92,0.00127
1994.07,0.00137
1990.21,0.00144
1986.35,0.00131
1982.5,0.00114
1978.64,0.00063
1974.78,0.00069
1970.93,0.00207
1967.07,0.00400
1963.21,0.00622
1959.35,0.00718
1955.5,0.00644
1951.64,0.00550
1947.78,0.00454
1943.93,0.00365
1940.07,0.00291
1936.21,0.00218
1932.36,0.00160
1928.5,0.00125
1924.64,0.00087
1920.78,0.00071
1916.93,0.00049
1913.07,0.00026
1909.21,0.00012
1905.36,0.00001
1901.5,-0.00005
1897.64,-0.00012
1893.79,-0.00017
1889.93,-0.00013
1886.07,-0.00025
1882.21,-0.00028
1878.36,-0.00030
1874.5,-0.00030
1870.64,-0.00024
1866.79,-0.00013
1862.93,-0.00003
1859.07,-0.00013
1855.22,-0.00009
1851.36,0.00019
1847.5,0.00058
1843.64,0.00106
1839.79,0.00147
1835.93,0.00180
1832.07,0.00207
1828.22,0.00222
1824.36,0.00204
1820.5,0.00173
1816.65,0.00140
1812.79,0.00126
1808.93,0.00106
1805.07,0.00078
1801.22,0.00042
1797.36,0.00010
1793.5,-0.00006
1789.65,-0.00017
1785.79,-0.00028
1781.93,-0.00035
1778.08,-0.00034
1774.22,-0.00009
1770.36,0.00046
1766.5,0.00131
1762.65,0.00274
1758.79,0.00514
1754.93,0.00934
1751.08,0.01733
1747.22,0.03352
1743.36,0.06544
1739.51,0.11479
1735.65,0.17608
1731.79,0.24750
1727.93,0.32666
1724.08,0.40996
1720.22,0.49773
1716.36,0.58559
1712.51,0.61714
1708.65,0.53384
1704.79,0.40816
1700.94,0.29768
1697.08,0.22196
1693.22,0.17341
1689.36,0.14074
1685.51,0.12472
1681.65,0.11413
1677.79,0.09448
1673.94,0.07910
1670.08,0.06706
1666.22,0.05465
1662.37,0.04337
1658.51,0.03508
1654.65,0.02932
1650.79,0.02461
1646.94,0.02069
1643.08,0.01740
1639.22,0.01479
1635.37,0.01259
1631.51,0.01054
1627.65,0.00887
1623.8,0.00759
1619.94,0.00725
1616.08,0.00915
1612.22,0.00917
1608.37,0.00645
1604.51,0.00435
1600.65,0.00283
1596.8,0.00130
1592.94,0.00100
1589.08,0.00167
1585.23,0.00457
1581.37,0.01238
1577.51,0.01649
1573.65,0.01002
1569.8,0.00423
1565.94,0.00176
1562.08,0.00094
1558.23,0.00087
1554.37,0.00082
1550.51,0.00083
1546.66,0.00064
1542.8,0.00019
1538.94,-0.00006
1535.08,0.00064
1531.23,0.00200
1527.37,0.00350
1523.51,0.00403
1519.66,0.00314
1515.8,0.00365
1511.94,0.00902
1508.09,0.03404
1504.23,0.05138
1500.37,0.01854
1496.51,0.00346
1492.66,0.00013
1488.8,0.00027
1484.94,0.00250
1481.09,0.00679
1477.23,0.01380
1473.37,0.02825
1469.52,0.03045
1465.66,0.01780
1461.8,0.01736
1457.94,0.02003
1454.09,0.02111
1450.23,0.01894
1446.37,0.01573
1442.52,0.01343
1438.66,0.01071
1434.8,0.00644
1430.95,0.00197
1427.09,0.00000
1423.23,0.00174
1419.37,0.01123
1415.52,0.04219
1411.66,0.09918
1407.8,0.11362
1403.95,0.07041
1400.09,0.03722
1396.23,0.02249
1392.38,0.01826
1388.52,0.02086
1384.66,0.02173
1380.8,0.01678
1376.95,0.01454
1373.09,0.01589
1369.23,0.01619
1365.38,0.00957
1361.52,0.00200
1357.66,0.00000
1353.81,0.00331
1349.95,0.01650
1346.09,0.05700
1342.23,0.13973
1338.38,0.16883
1334.52,0.08873
1330.66,0.02319
1326.81,0.00366
1322.95,0.00111
1319.09,0.00329
1315.24,0.00732
1311.38,0.01310
1307.52,0.02130
1303.66,0.03149
1299.81,0.04707
1295.95,0.06817
1292.09,0.09042
1288.24,0.11193
1284.38,0.13447
1280.52,0.16021
1276.67,0.18953
1272.81,0.22302
1268.95,0.26258
1265.09,0.30362
1261.24,0.33657
1257.38,0.35840
1253.52,0.38423
1249.67,0.42110
1245.81,0.45630
1241.95,0.47404
1238.1,0.45988
1234.24,0.41906
1230.38,0.37704
1226.52,0.34640
1222.67,0.32025
1218.81,0.28172
1214.95,0.23799
1211.1,0.20318
1207.24,0.17369
1203.38,0.14331
1199.53,0.11371
1195.67,0.08681
1191.81,0.06445
1187.95,0.04796
1184.1,0.03750
1180.24,0.03275
1176.38,0.03057
1172.53,0.02380
1168.67,0.01044
1164.81,0.00139
1160.96,0.00000
1157.1,0.00158
1153.24,0.00626
1149.39,0.01468
1145.53,0.02807
1141.67,0.04985
1137.81,0.08489
1133.96,0.13799
1130.1,0.20134
1126.24,0.25825
1122.39,0.29783
1118.53,0.31367
1114.67,0.30454
1110.82,0.31211
1106.96,0.33653
1103.1,0.37076
1099.24,0.39713
1095.39,0.40087
1091.53,0.38208
1087.67,0.35405
1083.82,0.32522
1079.96,0.29087
1076.1,0.25147
1072.25,0.21625
1068.39,0.18681
1064.53,0.16170
1060.67,0.14084
1056.82,0.12510
1052.96,0.11589
1049.1,0.11175
1045.25,0.10828
1041.39,0.10007
1037.53,0.08553
1033.68,0.06740
1029.82,0.05129
1025.96,0.08272
1022.1,0.18971
1018.25,0.24581
1014.39,0.22225
1010.53,0.15660
1006.68,0.11605
1002.82,0.09204
998.962,0.07617
995.105,0.06451
991.248,0.05957
987.391,0.05830
983.534,0.05103
979.677,0.05293
975.82,0.06719
971.963,0.09104
968.106,0.09489
964.249,0.07939
960.392,0.06363
956.535,0.05120
952.678,0.04201
948.821,0.03510
944.964,0.02965
941.107,0.02514
937.25,0.02131
933.393,0.01801
929.536,0.01506
925.679,0.01235
921.822,0.01011
917.965,0.00854
914.108,0.00806
910.251,0.00932
906.394,0.01300
902.537,0.01790
898.68,0.02066
894.823,0.01978
890.966,0.01760
887.109,0.01812
883.252,0.02491
879.395,0.04182
875.538,0.08088
871.681,0.14957
867.824,0.07837
863.967,0.04211
860.11,0.03583
856.253,0.04055
852.396,0.05102
848.539,0.06448
844.682,0.06363
840.825,0.05247
836.968,0.04233
833.111,0.03381
829.254,0.02708
825.397,0.02231
821.54,0.01928
817.683,0.01768
813.826,0.01691
809.969,0.01659
806.112,0.01693
802.255,0.01767
798.398,0.01950
794.541,0.03009
790.684,0.03067
786.827,0.02220
782.97,0.01557
779.113,0.01176
775.256,0.00929
771.399,0.00732
767.542,0.00527
763.685,0.00329
759.828,0.00206
755.971,0.00124
752.114,0.00074
748.257,0.00000
744.4,0.00069
740.543,0.01431
736.686,0.06394
732.829,0.15991
728.972,0.28409
725.115,0.41444
721.258,0.40291
717.401,0.32097
713.544,0.24747
709.687,0.18904
705.83,0.14436
701.973,0.11302
698.116,0.08535
694.259,0.06482
690.402,0.05176
686.545,0.04319
682.688,0.03751
678.831,0.03349
674.974,0.02741
671.117,0.02154
667.26,0.01559
663.403,0.01294
659.546,0.00906
655.689,0.00537
651.832,0.00184
649.904,0.00000