File: Exploratory-Data-Science/Model Testing of Backsheet Color and FTIR Data/FTIR/XENON2-FTIR/UL XENON 2000HR PET 3.147-2.SPA.dpt
3999.71,0.00025
3995.85,0.00027
3991.99,0.00031
3988.13,0.00031
3984.28,0.00017
3980.42,0.00021
3976.56,0.00027
3972.71,0.00004
3968.85,0.00008
3964.99,0.00013
3961.14,0.00009
3957.28,-0.00003
3953.42,0.00007
3949.56,0.00000
3945.71,-0.00002
3941.85,-0.00006
3937.99,-0.00003
3934.14,-0.00001
3930.28,0.00004
3926.42,0.00010
3922.57,0.00008
3918.71,-0.00001
3914.85,0.00000
3910.99,-0.00005
3907.14,0.00001
3903.28,0.00000
3899.42,0.00006
3895.57,0.00007
3891.71,0.00001
3887.85,-0.00005
3884,-0.00002
3880.14,-0.00006
3876.28,-0.00009
3872.42,-0.00002
3868.57,0.00004
3864.71,-0.00001
3860.85,0.00007
3857,0.00004
3853.14,0.00025
3849.28,0.00004
3845.43,0.00000
3841.57,0.00009
3837.71,0.00014
3833.85,-0.00002
3830,0.00003
3826.14,-0.00000
3822.28,0.00002
3818.43,0.00001
3814.57,0.00005
3810.71,0.00003
3806.86,0.00000
3803,-0.00000
3799.14,0.00002
3795.28,0.00003
3791.43,-0.00003
3787.57,-0.00010
3783.71,-0.00010
3779.86,-0.00004
3776,-0.00007
3772.14,-0.00004
3768.29,-0.00014
3764.43,-0.00007
3760.57,0.00004
3756.72,-0.00007
3752.86,0.00015
3749,0.00015
3745.14,0.00011
3741.29,0.00000
3737.43,0.00013
3733.57,0.00003
3729.72,0.00007
3725.86,0.00004
3722,-0.00001
3718.15,-0.00003
3714.29,-0.00003
3710.43,-0.00008
3706.57,0.00005
3702.72,0.00001
3698.86,0.00008
3695,0.00002
3691.15,0.00014
3687.29,0.00003
3683.43,-0.00008
3679.58,-0.00016
3675.72,-0.00001
3671.86,-0.00008
3668,-0.00003
3664.15,-0.00011
3660.29,-0.00011
3656.43,-0.00003
3652.58,0.00000
3648.72,0.00005
3644.86,-0.00001
3641.01,0.00007
3637.15,0.00000
3633.29,-0.00007
3629.43,0.00009
3625.58,0.00011
3621.72,0.00010
3617.86,0.00003
3614.01,0.00011
3610.15,0.00001
3606.29,0.00002
3602.44,-0.00009
3598.58,-0.00003
3594.72,0.00007
3590.86,0.00003
3587.01,0.00000
3583.15,0.00005
3579.29,0.00010
3575.44,0.00006
3571.58,0.00007
3567.72,0.00015
3563.87,0.00007
3560.01,0.00009
3556.15,0.00020
3552.29,0.00034
3548.44,0.00028
3544.58,0.00024
3540.72,0.00031
3536.87,0.00031
3533.01,0.00026
3529.15,0.00031
3525.3,0.00018
3521.44,0.00020
3517.58,0.00020
3513.72,0.00007
3509.87,0.00019
3506.01,0.00014
3502.15,0.00010
3498.3,0.00000
3494.44,0.00019
3490.58,0.00024
3486.73,0.00010
3482.87,0.00014
3479.01,0.00005
3475.15,0.00002
3471.3,0.00003
3467.44,0.00009
3463.58,0.00002
3459.73,-0.00002
3455.87,-0.00002
3452.01,0.00007
3448.16,0.00004
3444.3,0.00000
3440.44,0.00013
3436.58,0.00018
3432.73,0.00023
3428.87,0.00028
3425.01,0.00033
3421.16,0.00025
3417.3,0.00022
3413.44,0.00026
3409.59,0.00027
3405.73,0.00011
3401.87,0.00019
3398.01,0.00017
3394.16,0.00021
3390.3,0.00006
3386.44,0.00008
3382.59,0.00006
3378.73,0.00000
3374.87,0.00009
3371.02,0.00004
3367.16,0.00000
3363.3,0.00003
3359.44,0.00015
3355.59,0.00014
3351.73,0.00015
3347.87,0.00011
3344.02,0.00017
3340.16,0.00035
3336.3,0.00039
3332.45,0.00050
3328.59,0.00064
3324.73,0.00076
3320.87,0.00092
3317.02,0.00115
3313.16,0.00127
3309.3,0.00146
3305.45,0.00160
3301.59,0.00174
3297.73,0.00180
3293.88,0.00184
3290.02,0.00180
3286.16,0.00177
3282.3,0.00175
3278.45,0.00158
3274.59,0.00153
3270.73,0.00141
3266.88,0.00126
3263.02,0.00113
3259.16,0.00105
3255.31,0.00081
3251.45,0.00072
3247.59,0.00066
3243.73,0.00063
3239.88,0.00052
3236.02,0.00036
3232.16,0.00034
3228.31,0.00044
3224.45,0.00033
3220.59,0.00028
3216.74,0.00030
3212.88,0.00027
3209.02,0.00021
3205.16,0.00017
3201.31,0.00021
3197.45,0.00017
3193.59,0.00016
3189.74,0.00011
3185.88,0.00005
3182.02,0.00004
3178.17,0.00005
3174.31,0.00002
3170.45,0.00004
3166.59,0.00001
3162.74,-0.00004
3158.88,-0.00002
3155.02,0.00000
3151.17,0.00002
3147.31,-0.00003
3143.45,0.00002
3139.6,0.00002
3135.74,0.00013
3131.88,0.00009
3128.02,0.00000
3124.17,0.00004
3120.31,0.00010
3116.45,0.00010
3112.6,0.00015
3108.74,0.00025
3104.88,0.00027
3101.03,0.00034
3097.17,0.00037
3093.31,0.00032
3089.45,0.00037
3085.6,0.00050
3081.74,0.00045
3077.88,0.00042
3074.03,0.00047
3070.17,0.00047
3066.31,0.00043
3062.46,0.00032
3058.6,0.00034
3054.74,0.00035
3050.88,0.00026
3047.03,0.00012
3043.17,0.00008
3039.31,0.00003
3035.46,0.00003
3031.6,0.00008
3027.74,0.00004
3023.89,0.00004
3020.03,0.00008
3016.17,0.00015
3012.31,0.00012
3008.46,0.00007
3004.6,0.00007
3000.74,0.00008
2996.89,0.00004
2993.03,0.00003
2989.17,0.00006
2985.32,0.00009
2981.46,0.00031
2977.6,0.00069
2973.74,0.00124
2969.89,0.00190
2966.03,0.00255
2962.17,0.00300
2958.32,0.00309
2954.46,0.00314
2950.6,0.00333
2946.75,0.00338
2942.89,0.00352
2939.03,0.00421
2935.17,0.00531
2931.32,0.00682
2927.46,0.00850
2923.6,0.01012
2919.75,0.01127
2915.89,0.01099
2912.03,0.00904
2908.18,0.00739
2904.32,0.00626
2900.46,0.00524
2896.6,0.00448
2892.75,0.00383
2888.89,0.00335
2885.03,0.00303
2881.18,0.00278
2877.32,0.00256
2873.46,0.00241
2869.61,0.00245
2865.75,0.00280
2861.89,0.00322
2858.03,0.00428
2854.18,0.00590
2850.32,0.00737
2846.46,0.00606
2842.61,0.00399
2838.75,0.00276
2834.89,0.00195
2831.04,0.00138
2827.18,0.00097
2823.32,0.00075
2819.46,0.00065
2815.61,0.00048
2811.75,0.00039
2807.89,0.00038
2804.04,0.00030
2800.18,0.00021
2796.32,0.00019
2792.47,0.00017
2788.61,0.00017
2784.75,0.00011
2780.89,0.00012
2777.04,0.00007
2773.18,-0.00001
2769.32,0.00004
2765.47,0.00001
2761.61,0.00000
2757.75,0.00000
2753.9,0.00002
2750.04,0.00002
2746.18,-0.00005
2742.32,-0.00002
2738.47,0.00000
2734.61,-0.00001
2730.75,-0.00004
2726.9,-0.00000
2723.04,0.00003
2719.18,0.00003
2715.33,-0.00000
2711.47,0.00005
2707.61,0.00005
2703.75,0.00000
2699.9,0.00003
2696.04,-0.00006
2692.18,-0.00002
2688.33,-0.00001
2684.47,-0.00001
2680.61,-0.00002
2676.76,-0.00003
2672.9,0.00001
2669.04,-0.00000
2665.18,0.00001
2661.33,0.00000
2657.47,0.00002
2653.61,0.00002
2649.76,0.00002
2645.9,0.00002
2642.04,0.00004
2638.19,0.00007
2634.33,0.00005
2630.47,0.00008
2626.61,0.00004
2622.76,0.00005
2618.9,0.00005
2615.04,0.00004
2611.19,0.00004
2607.33,0.00001
2603.47,0.00001
2599.62,0.00001
2595.76,0.00003
2591.9,0.00004
2588.04,0.00002
2584.19,0.00001
2580.33,0.00004
2576.47,0.00002
2572.62,0.00004
2568.76,0.00009
2564.9,0.00002
2561.05,0.00004
2557.19,0.00010
2553.33,0.00018
2549.47,0.00008
2545.62,0.00008
2541.76,0.00006
2537.9,0.00014
2534.05,0.00010
2530.19,0.00014
2526.33,0.00014
2522.48,0.00010
2518.62,0.00015
2514.76,0.00016
2510.9,0.00020
2507.05,0.00020
2503.19,0.00006
2499.33,0.00011
2495.48,0.00005
2491.62,0.00004
2487.76,0.00004
2483.91,0.00002
2480.05,0.00005
2476.19,-0.00001
2472.33,0.00009
2468.48,0.00019
2464.62,0.00007
2460.76,0.00007
2456.91,0.00000
2453.05,0.00006
2449.19,0.00006
2445.34,0.00007
2441.48,0.00008
2437.62,0.00010
2433.77,0.00019
2429.91,0.00012
2426.05,0.00010
2422.19,0.00014
2418.34,0.00018
2414.48,0.00018
2410.62,0.00021
2406.77,0.00035
2402.91,0.00038
2399.05,0.00048
2395.2,0.00052
2391.34,0.00053
2387.48,0.00051
2383.62,0.00047
2379.77,0.00034
2375.91,0.00031
2372.05,0.00028
2368.2,0.00019
2364.34,0.00013
2360.48,-0.00001
2356.63,0.00009
2352.77,0.00023
2348.91,0.00044
2345.05,0.00023
2341.2,0.00011
2337.34,0.00000
2333.48,0.00002
2329.63,0.00000
2325.77,0.00007
2321.91,0.00023
2318.06,0.00028
2314.2,0.00021
2310.34,0.00025
2306.48,0.00023
2302.63,0.00025
2298.77,0.00026
2294.91,0.00028
2291.06,0.00022
2287.2,0.00023
2283.34,0.00020
2279.49,0.00015
2275.63,0.00012
2271.77,0.00005
2267.91,0.00015
2264.06,0.00018
2260.2,0.00011
2256.34,0.00011
2252.49,0.00004
2248.63,0.00013
2244.77,0.00000
2240.92,0.00021
2237.06,0.00013
2233.2,0.00010
2229.34,0.00019
2225.49,0.00020
2221.63,0.00011
2217.77,0.00000
2213.92,0.00006
2210.06,0.00014
2206.2,0.00009
2202.35,0.00008
2198.49,0.00021
2194.63,0.00019
2190.77,0.00031
2186.92,0.00020
2183.06,0.00036
2179.2,0.00018
2175.35,0.00019
2171.49,0.00015
2167.63,0.00063
2163.78,0.00040
2159.92,0.00065
2156.06,0.00027
2152.2,0.00057
2148.35,0.00081
2144.49,0.00092
2140.63,0.00077
2136.78,0.00087
2132.92,0.00078
2129.06,0.00074
2125.21,0.00076
2121.35,0.00079
2117.49,0.00075
2113.63,0.00072
2109.78,0.00064
2105.92,0.00063
2102.06,0.00063
2098.21,0.00062
2094.35,0.00057
2090.49,0.00057
2086.64,0.00047
2082.78,0.00049
2078.92,0.00048
2075.06,0.00027
2071.21,0.00031
2067.35,0.00032
2063.49,0.00012
2059.64,0.00027
2055.78,0.00030
2051.92,0.00013
2048.07,0.00028
2044.21,0.00021
2040.35,0.00000
2036.49,0.00025
2032.64,0.00009
2028.78,0.00014
2024.92,0.00025
2021.07,0.00048
2017.21,0.00057
2013.35,0.00055
2009.5,0.00074
2005.64,0.00074
2001.78,0.00060
1997.92,0.00064
1994.07,0.00075
1990.21,0.00087
1986.35,0.00098
1982.5,0.00101
1978.64,0.00147
1974.78,0.00147
1970.93,0.00147
1967.07,0.00171
1963.21,0.00185
1959.35,0.00183
1955.5,0.00172
1951.64,0.00143
1947.78,0.00135
1943.93,0.00129
1940.07,0.00129
1936.21,0.00111
1932.36,0.00093
1928.5,0.00100
1924.64,0.00084
1920.78,0.00082
1916.93,0.00065
1913.07,0.00070
1909.21,0.00061
1905.36,0.00055
1901.5,0.00045
1897.64,0.00041
1893.79,0.00035
1889.93,0.00030
1886.07,0.00029
1882.21,0.00021
1878.36,0.00017
1874.5,0.00016
1870.64,0.00010
1866.79,0.00008
1862.93,0.00005
1859.07,0.00008
1855.22,0.00004
1851.36,0.00000
1847.5,0.00007
1843.64,0.00007
1839.79,0.00006
1835.93,0.00005
1832.07,0.00002
1828.22,0.00007
1824.36,0.00002
1820.5,0.00005
1816.65,0.00005
1812.79,0.00002
1808.93,0.00004
1805.07,0.00003
1801.22,0.00004
1797.36,0.00006
1793.5,0.00004
1789.65,0.00003
1785.79,0.00001
1781.93,0.00001
1778.08,-0.00005
1774.22,-0.00008
1770.36,-0.00010
1766.5,-0.00011
1762.65,-0.00002
1758.79,0.00018
1754.93,0.00049
1751.08,0.00119
1747.22,0.00240
1743.36,0.00481
1739.51,0.00850
1735.65,0.01313
1731.79,0.01867
1727.93,0.02468
1724.08,0.03095
1720.22,0.03778
1716.36,0.04333
1712.51,0.04154
1708.65,0.03513
1704.79,0.02997
1700.94,0.02638
1697.08,0.02364
1693.22,0.02127
1689.36,0.01892
1685.51,0.01710
1681.65,0.01564
1677.79,0.01408
1673.94,0.01276
1670.08,0.01163
1666.22,0.01063
1662.37,0.00985
1658.51,0.00927
1654.65,0.00902
1650.79,0.00887
1646.94,0.00900
1643.08,0.00929
1639.22,0.00954
1635.37,0.00933
1631.51,0.00843
1627.65,0.00747
1623.8,0.00676
1619.94,0.00616
1616.08,0.00580
1612.22,0.00538
1608.37,0.00478
1604.51,0.00415
1600.65,0.00358
1596.8,0.00304
1592.94,0.00264
1589.08,0.00235
1585.23,0.00232
1581.37,0.00283
1577.51,0.00349
1573.65,0.00335
1569.8,0.00304
1565.94,0.00285
1562.08,0.00275
1558.23,0.00273
1554.37,0.00256
1550.51,0.00244
1546.66,0.00229
1542.8,0.00212
1538.94,0.00193
1535.08,0.00161
1531.23,0.00136
1527.37,0.00114
1523.51,0.00090
1519.66,0.00062
1515.8,0.00039
1511.94,0.00058
1508.09,0.00250
1504.23,0.00379
1500.37,0.00172
1496.51,0.00063
1492.66,0.00020
1488.8,0.00001
1484.94,0.00001
1481.09,0.00020
1477.23,0.00071
1473.37,0.00214
1469.52,0.00317
1465.66,0.00258
1461.8,0.00220
1457.94,0.00219
1454.09,0.00223
1450.23,0.00211
1446.37,0.00192
1442.52,0.00179
1438.66,0.00172
1434.8,0.00155
1430.95,0.00128
1427.09,0.00115
1423.23,0.00128
1419.37,0.00196
1415.52,0.00419
1411.66,0.00800
1407.8,0.00857
1403.95,0.00601
1400.09,0.00389
1396.23,0.00278
1392.38,0.00235
1388.52,0.00246
1384.66,0.00256
1380.8,0.00232
1376.95,0.00223
1373.09,0.00201
1369.23,0.00166
1365.38,0.00104
1361.52,0.00036
1357.66,0.00002
1353.81,0.00009
1349.95,0.00120
1346.09,0.00514
1342.23,0.01136
1338.38,0.01159
1334.52,0.00603
1330.66,0.00199
1326.81,0.00044
1322.95,0.00003
1319.09,-0.00000
1315.24,0.00012
1311.38,0.00045
1307.52,0.00097
1303.66,0.00168
1299.81,0.00283
1295.95,0.00421
1292.09,0.00576
1288.24,0.00774
1284.38,0.01037
1280.52,0.01367
1276.67,0.01737
1272.81,0.02098
1268.95,0.02426
1265.09,0.02691
1261.24,0.02880
1257.38,0.03032
1253.52,0.03209
1249.67,0.03348
1245.81,0.03361
1241.95,0.03211
1238.1,0.02905
1234.24,0.02542
1230.38,0.02215
1226.52,0.01984
1222.67,0.01841
1218.81,0.01684
1214.95,0.01519
1211.1,0.01389
1207.24,0.01277
1203.38,0.01159
1199.53,0.01042
1195.67,0.00928
1191.81,0.00816
1187.95,0.00711
1184.1,0.00626
1180.24,0.00558
1176.38,0.00500
1172.53,0.00428
1168.67,0.00327
1164.81,0.00237
1160.96,0.00175
1157.1,0.00127
1153.24,0.00097
1149.39,0.00105
1145.53,0.00170
1141.67,0.00340
1137.81,0.00696
1133.96,0.01268
1130.1,0.01868
1126.24,0.02260
1122.39,0.02389
1118.53,0.02303
1114.67,0.02175
1110.82,0.02303
1106.96,0.02462
1103.1,0.02557
1099.24,0.02539
1095.39,0.02418
1091.53,0.02240
1087.67,0.02068
1083.82,0.01898
1079.96,0.01716
1076.1,0.01535
1072.25,0.01378
1068.39,0.01238
1064.53,0.01111
1060.67,0.00998
1056.82,0.00899
1052.96,0.00817
1049.1,0.00754
1045.25,0.00700
1041.39,0.00630
1037.53,0.00538
1033.68,0.00409
1029.82,0.00277
1025.96,0.00547
1022.1,0.01226
1018.25,0.01406
1014.39,0.01187
1010.53,0.00845
1006.68,0.00651
1002.82,0.00525
998.962,0.00434
995.105,0.00365
991.248,0.00318
987.391,0.00301
983.534,0.00265
979.677,0.00248
975.82,0.00304
971.963,0.00432
968.106,0.00479
964.249,0.00426
960.392,0.00359
956.535,0.00304
952.678,0.00264
948.821,0.00237
944.964,0.00217
941.107,0.00194
937.25,0.00176
933.393,0.00156
929.536,0.00135
925.679,0.00115
921.822,0.00100
917.965,0.00087
914.108,0.00078
910.251,0.00071
906.394,0.00063
902.537,0.00060
898.68,0.00053
894.823,0.00038
890.966,0.00013
887.109,0.00000
883.252,0.00019
879.395,0.00104
875.538,0.00327
871.681,0.00722
867.824,0.00351
863.967,0.00159
860.11,0.00117
856.253,0.00125
852.396,0.00139
848.539,0.00206
844.682,0.00237
840.825,0.00194
836.968,0.00149
833.111,0.00119
829.254,0.00116
825.397,0.00130
821.54,0.00114
817.683,0.00060
813.826,0.00028
809.969,0.00008
806.112,0.00000
802.255,0.00002
798.398,0.00021
794.541,0.00082
790.684,0.00134
786.827,0.00157
782.97,0.00191
779.113,0.00230
775.256,0.00271
771.399,0.00310
767.542,0.00346
763.685,0.00374
759.828,0.00414
755.971,0.00450
752.114,0.00465
748.257,0.00470
744.4,0.00468
740.543,0.00513
736.686,0.00745
732.829,0.01328
728.972,0.02226
725.115,0.02963
721.258,0.02819
717.401,0.02345
713.544,0.02019
709.687,0.01792
705.83,0.01613
701.973,0.01471
698.116,0.01337
694.259,0.01203
690.402,0.01084
686.545,0.00977
682.688,0.00887
678.831,0.00796
674.974,0.00718
671.117,0.00635
667.26,0.00536
663.403,0.00432
659.546,0.00307
655.689,0.00185
651.832,0.00065
649.904,0.00000