File: Exploratory-Data-Science/Model Testing of Backsheet Color and FTIR Data/FTIR/XENON2-FTIR/UL XENON 2000HR PET 3.147-1.SPA.dpt
3999.71,0.00038
3995.85,0.00036
3991.99,0.00035
3988.13,0.00039
3984.28,0.00029
3980.42,0.00029
3976.56,0.00038
3972.71,0.00021
3968.85,0.00019
3964.99,0.00018
3961.14,0.00019
3957.28,0.00000
3953.42,0.00010
3949.56,0.00012
3945.71,0.00015
3941.85,-0.00002
3937.99,0.00002
3934.14,0.00003
3930.28,0.00007
3926.42,0.00007
3922.57,0.00016
3918.71,0.00011
3914.85,0.00017
3910.99,0.00004
3907.14,0.00008
3903.28,0.00020
3899.42,0.00017
3895.57,0.00012
3891.71,0.00021
3887.85,0.00004
3884,-0.00005
3880.14,-0.00001
3876.28,-0.00003
3872.42,0.00002
3868.57,0.00009
3864.71,0.00009
3860.85,-0.00003
3857,0.00005
3853.14,0.00048
3849.28,0.00015
3845.43,0.00000
3841.57,0.00010
3837.71,0.00041
3833.85,0.00015
3830,0.00002
3826.14,0.00000
3822.28,0.00014
3818.43,0.00010
3814.57,0.00012
3810.71,0.00002
3806.86,0.00016
3803,0.00023
3799.14,0.00008
3795.28,0.00011
3791.43,-0.00001
3787.57,-0.00003
3783.71,0.00004
3779.86,0.00007
3776,-0.00004
3772.14,-0.00009
3768.29,0.00005
3764.43,0.00003
3760.57,0.00012
3756.72,0.00001
3752.86,0.00030
3749,0.00032
3745.14,0.00048
3741.29,0.00046
3737.43,0.00099
3733.57,0.00141
3729.72,0.00146
3725.86,0.00156
3722,0.00111
3718.15,0.00061
3714.29,0.00027
3710.43,0.00069
3706.57,0.00097
3702.72,0.00103
3698.86,0.00100
3695,0.00084
3691.15,0.00085
3687.29,0.00060
3683.43,0.00029
3679.58,0.00018
3675.72,0.00050
3671.86,0.00037
3668,0.00021
3664.15,0.00012
3660.29,0.00010
3656.43,0.00026
3652.58,0.00021
3648.72,0.00028
3644.86,0.00025
3641.01,0.00023
3637.15,0.00039
3633.29,0.00062
3629.43,0.00121
3625.58,0.00112
3621.72,0.00086
3617.86,0.00062
3614.01,0.00031
3610.15,0.00026
3606.29,0.00051
3602.44,0.00058
3598.58,0.00069
3594.72,0.00069
3590.86,0.00055
3587.01,0.00044
3583.15,0.00019
3579.29,0.00013
3575.44,0.00021
3571.58,0.00009
3567.72,0.00018
3563.87,0.00007
3560.01,0.00000
3556.15,0.00011
3552.29,0.00016
3548.44,0.00006
3544.58,0.00017
3540.72,0.00020
3536.87,0.00017
3533.01,0.00014
3529.15,0.00022
3525.3,0.00014
3521.44,0.00019
3517.58,0.00015
3513.72,0.00007
3509.87,0.00019
3506.01,0.00016
3502.15,0.00008
3498.3,0.00006
3494.44,0.00017
3490.58,0.00015
3486.73,0.00012
3482.87,0.00022
3479.01,0.00013
3475.15,-0.00006
3471.3,0.00006
3467.44,0.00009
3463.58,0.00007
3459.73,0.00001
3455.87,-0.00002
3452.01,0.00003
3448.16,0.00012
3444.3,0.00002
3440.44,0.00005
3436.58,0.00010
3432.73,0.00014
3428.87,0.00020
3425.01,0.00027
3421.16,0.00015
3417.3,0.00007
3413.44,0.00010
3409.59,0.00010
3405.73,0.00003
3401.87,-0.00001
3398.01,-0.00003
3394.16,0.00006
3390.3,0.00001
3386.44,-0.00003
3382.59,-0.00000
3378.73,0.00002
3374.87,0.00002
3371.02,0.00005
3367.16,0.00007
3363.3,0.00000
3359.44,0.00014
3355.59,0.00013
3351.73,0.00016
3347.87,0.00016
3344.02,0.00021
3340.16,0.00043
3336.3,0.00047
3332.45,0.00055
3328.59,0.00082
3324.73,0.00091
3320.87,0.00110
3317.02,0.00136
3313.16,0.00146
3309.3,0.00171
3305.45,0.00197
3301.59,0.00211
3297.73,0.00211
3293.88,0.00210
3290.02,0.00206
3286.16,0.00201
3282.3,0.00201
3278.45,0.00184
3274.59,0.00174
3270.73,0.00158
3266.88,0.00141
3263.02,0.00132
3259.16,0.00118
3255.31,0.00090
3251.45,0.00092
3247.59,0.00076
3243.73,0.00068
3239.88,0.00057
3236.02,0.00044
3232.16,0.00036
3228.31,0.00039
3224.45,0.00033
3220.59,0.00032
3216.74,0.00029
3212.88,0.00021
3209.02,0.00020
3205.16,0.00028
3201.31,0.00024
3197.45,0.00017
3193.59,0.00022
3189.74,0.00013
3185.88,0.00020
3182.02,0.00010
3178.17,0.00013
3174.31,0.00006
3170.45,0.00007
3166.59,0.00007
3162.74,0.00001
3158.88,0.00004
3155.02,-0.00002
3151.17,-0.00000
3147.31,0.00008
3143.45,0.00000
3139.6,0.00004
3135.74,0.00013
3131.88,0.00007
3128.02,0.00000
3124.17,0.00002
3120.31,0.00013
3116.45,0.00012
3112.6,0.00012
3108.74,0.00021
3104.88,0.00027
3101.03,0.00035
3097.17,0.00041
3093.31,0.00035
3089.45,0.00035
3085.6,0.00038
3081.74,0.00042
3077.88,0.00043
3074.03,0.00037
3070.17,0.00040
3066.31,0.00035
3062.46,0.00025
3058.6,0.00018
3054.74,0.00025
3050.88,0.00017
3047.03,0.00014
3043.17,0.00010
3039.31,0.00001
3035.46,-0.00002
3031.6,0.00001
3027.74,-0.00001
3023.89,0.00001
3020.03,0.00010
3016.17,0.00017
3012.31,0.00010
3008.46,0.00004
3004.6,0.00004
3000.74,0.00002
2996.89,-0.00002
2993.03,0.00000
2989.17,0.00000
2985.32,0.00000
2981.46,0.00016
2977.6,0.00044
2973.74,0.00083
2969.89,0.00143
2966.03,0.00198
2962.17,0.00234
2958.32,0.00246
2954.46,0.00252
2950.6,0.00280
2946.75,0.00303
2942.89,0.00334
2939.03,0.00413
2935.17,0.00522
2931.32,0.00671
2927.46,0.00824
2923.6,0.00974
2919.75,0.01079
2915.89,0.01070
2912.03,0.00898
2908.18,0.00738
2904.32,0.00631
2900.46,0.00535
2896.6,0.00455
2892.75,0.00394
2888.89,0.00340
2885.03,0.00310
2881.18,0.00278
2877.32,0.00257
2873.46,0.00235
2869.61,0.00246
2865.75,0.00281
2861.89,0.00333
2858.03,0.00439
2854.18,0.00601
2850.32,0.00755
2846.46,0.00647
2842.61,0.00438
2838.75,0.00305
2834.89,0.00217
2831.04,0.00158
2827.18,0.00116
2823.32,0.00093
2819.46,0.00080
2815.61,0.00067
2811.75,0.00056
2807.89,0.00050
2804.04,0.00042
2800.18,0.00034
2796.32,0.00027
2792.47,0.00023
2788.61,0.00020
2784.75,0.00019
2780.89,0.00017
2777.04,0.00008
2773.18,0.00002
2769.32,0.00007
2765.47,0.00004
2761.61,0.00000
2757.75,0.00001
2753.9,0.00003
2750.04,0.00003
2746.18,-0.00002
2742.32,-0.00000
2738.47,0.00002
2734.61,-0.00001
2730.75,0.00001
2726.9,0.00003
2723.04,-0.00000
2719.18,-0.00001
2715.33,-0.00000
2711.47,0.00006
2707.61,0.00006
2703.75,0.00000
2699.9,0.00002
2696.04,-0.00006
2692.18,-0.00001
2688.33,-0.00002
2684.47,0.00002
2680.61,0.00002
2676.76,-0.00003
2672.9,0.00004
2669.04,0.00001
2665.18,-0.00000
2661.33,-0.00001
2657.47,0.00002
2653.61,0.00000
2649.76,0.00003
2645.9,0.00002
2642.04,0.00004
2638.19,0.00006
2634.33,0.00009
2630.47,0.00010
2626.61,0.00002
2622.76,0.00002
2618.9,0.00006
2615.04,0.00013
2611.19,0.00005
2607.33,0.00002
2603.47,0.00003
2599.62,0.00002
2595.76,0.00003
2591.9,0.00001
2588.04,-0.00002
2584.19,0.00001
2580.33,0.00010
2576.47,0.00001
2572.62,-0.00000
2568.76,0.00003
2564.9,0.00002
2561.05,0.00000
2557.19,0.00001
2553.33,0.00012
2549.47,0.00010
2545.62,0.00003
2541.76,0.00004
2537.9,0.00007
2534.05,0.00001
2530.19,0.00012
2526.33,0.00013
2522.48,0.00003
2518.62,0.00004
2514.76,0.00006
2510.9,0.00009
2507.05,0.00017
2503.19,0.00003
2499.33,0.00009
2495.48,0.00005
2491.62,0.00000
2487.76,0.00005
2483.91,-0.00002
2480.05,0.00011
2476.19,-0.00002
2472.33,0.00007
2468.48,0.00017
2464.62,0.00007
2460.76,0.00003
2456.91,0.00001
2453.05,-0.00001
2449.19,0.00001
2445.34,0.00001
2441.48,0.00001
2437.62,0.00001
2433.77,0.00003
2429.91,0.00004
2426.05,0.00000
2422.19,0.00005
2418.34,0.00005
2414.48,-0.00000
2410.62,0.00000
2406.77,0.00006
2402.91,0.00015
2399.05,0.00016
2395.2,0.00020
2391.34,0.00014
2387.48,0.00026
2383.62,0.00136
2379.77,0.00508
2375.91,0.01256
2372.05,0.02175
2368.2,0.02942
2364.34,0.03389
2360.48,0.03512
2356.63,0.03231
2352.77,0.02297
2348.91,0.01164
2345.05,0.02164
2341.2,0.02578
2337.34,0.02525
2333.48,0.02414
2329.63,0.02273
2325.77,0.01982
2321.91,0.01724
2318.06,0.01316
2314.2,0.00955
2310.34,0.00663
2306.48,0.00430
2302.63,0.00275
2298.77,0.00183
2294.91,0.00123
2291.06,0.00070
2287.2,0.00036
2283.34,0.00008
2279.49,0.00002
2275.63,0.00013
2271.77,0.00018
2267.91,0.00030
2264.06,0.00033
2260.2,0.00013
2256.34,0.00004
2252.49,0.00000
2248.63,-0.00000
2244.77,0.00008
2240.92,0.00017
2237.06,0.00009
2233.2,0.00006
2229.34,0.00023
2225.49,0.00005
2221.63,0.00006
2217.77,0.00012
2213.92,0.00006
2210.06,0.00010
2206.2,0.00009
2202.35,0.00005
2198.49,0.00021
2194.63,0.00007
2190.77,0.00023
2186.92,0.00027
2183.06,0.00029
2179.2,0.00008
2175.35,0.00013
2171.49,0.00003
2167.63,0.00035
2163.78,0.00010
2159.92,0.00027
2156.06,0.00010
2152.2,0.00037
2148.35,0.00035
2144.49,0.00041
2140.63,0.00055
2136.78,0.00063
2132.92,0.00043
2129.06,0.00051
2125.21,0.00046
2121.35,0.00043
2117.49,0.00043
2113.63,0.00036
2109.78,0.00030
2105.92,0.00029
2102.06,0.00031
2098.21,0.00030
2094.35,0.00031
2090.49,0.00036
2086.64,0.00029
2082.78,0.00015
2078.92,0.00024
2075.06,0.00011
2071.21,0.00005
2067.35,0.00008
2063.49,0.00003
2059.64,0.00017
2055.78,0.00008
2051.92,-0.00000
2048.07,0.00014
2044.21,-0.00004
2040.35,-0.00001
2036.49,0.00022
2032.64,0.00007
2028.78,-0.00003
2024.92,0.00027
2021.07,0.00024
2017.21,0.00043
2013.35,0.00035
2009.5,0.00062
2005.64,0.00065
2001.78,0.00032
1997.92,0.00044
1994.07,0.00046
1990.21,0.00061
1986.35,0.00071
1982.5,0.00065
1978.64,0.00102
1974.78,0.00111
1970.93,0.00108
1967.07,0.00113
1963.21,0.00138
1959.35,0.00117
1955.5,0.00117
1951.64,0.00102
1947.78,0.00088
1943.93,0.00081
1940.07,0.00081
1936.21,0.00074
1932.36,0.00060
1928.5,0.00059
1924.64,0.00056
1920.78,0.00050
1916.93,0.00047
1913.07,0.00038
1909.21,0.00043
1905.36,0.00039
1901.5,0.00024
1897.64,0.00025
1893.79,0.00020
1889.93,0.00021
1886.07,0.00022
1882.21,0.00015
1878.36,0.00012
1874.5,0.00010
1870.64,0.00008
1866.79,0.00014
1862.93,0.00008
1859.07,0.00008
1855.22,0.00005
1851.36,0.00007
1847.5,0.00010
1843.64,0.00012
1839.79,0.00006
1835.93,0.00006
1832.07,0.00007
1828.22,0.00010
1824.36,0.00012
1820.5,0.00009
1816.65,0.00006
1812.79,0.00008
1808.93,0.00011
1805.07,0.00008
1801.22,0.00010
1797.36,0.00009
1793.5,0.00011
1789.65,0.00008
1785.79,0.00008
1781.93,0.00010
1778.08,0.00005
1774.22,0.00007
1770.36,0.00002
1766.5,0.00000
1762.65,0.00007
1758.79,0.00017
1754.93,0.00038
1751.08,0.00088
1747.22,0.00167
1743.36,0.00334
1739.51,0.00598
1735.65,0.00946
1731.79,0.01391
1727.93,0.01905
1724.08,0.02463
1720.22,0.03085
1716.36,0.03581
1712.51,0.03366
1708.65,0.02787
1704.79,0.02357
1700.94,0.02074
1697.08,0.01854
1693.22,0.01663
1689.36,0.01479
1685.51,0.01348
1681.65,0.01232
1677.79,0.01112
1673.94,0.01014
1670.08,0.00932
1666.22,0.00852
1662.37,0.00798
1658.51,0.00755
1654.65,0.00754
1650.79,0.00748
1646.94,0.00778
1643.08,0.00824
1639.22,0.00869
1635.37,0.00873
1631.51,0.00790
1627.65,0.00699
1623.8,0.00624
1619.94,0.00561
1616.08,0.00532
1612.22,0.00486
1608.37,0.00436
1604.51,0.00381
1600.65,0.00332
1596.8,0.00285
1592.94,0.00247
1589.08,0.00220
1585.23,0.00214
1581.37,0.00253
1577.51,0.00311
1573.65,0.00312
1569.8,0.00304
1565.94,0.00294
1562.08,0.00295
1558.23,0.00306
1554.37,0.00280
1550.51,0.00266
1546.66,0.00255
1542.8,0.00246
1538.94,0.00231
1535.08,0.00191
1531.23,0.00162
1527.37,0.00137
1523.51,0.00111
1519.66,0.00081
1515.8,0.00053
1511.94,0.00061
1508.09,0.00216
1504.23,0.00312
1500.37,0.00145
1496.51,0.00061
1492.66,0.00020
1488.8,0.00004
1484.94,-0.00001
1481.09,0.00011
1477.23,0.00053
1473.37,0.00181
1469.52,0.00275
1465.66,0.00227
1461.8,0.00178
1457.94,0.00167
1454.09,0.00150
1450.23,0.00133
1446.37,0.00119
1442.52,0.00109
1438.66,0.00106
1434.8,0.00095
1430.95,0.00074
1427.09,0.00064
1423.23,0.00073
1419.37,0.00130
1415.52,0.00301
1411.66,0.00595
1407.8,0.00623
1403.95,0.00426
1400.09,0.00267
1396.23,0.00185
1392.38,0.00156
1388.52,0.00174
1384.66,0.00190
1380.8,0.00167
1376.95,0.00154
1373.09,0.00136
1369.23,0.00111
1365.38,0.00070
1361.52,0.00026
1357.66,0.00001
1353.81,0.00008
1349.95,0.00103
1346.09,0.00460
1342.23,0.01013
1338.38,0.00993
1334.52,0.00498
1330.66,0.00170
1326.81,0.00044
1322.95,0.00006
1319.09,0.00000
1315.24,0.00001
1311.38,0.00021
1307.52,0.00056
1303.66,0.00107
1299.81,0.00190
1295.95,0.00288
1292.09,0.00407
1288.24,0.00576
1284.38,0.00820
1280.52,0.01133
1276.67,0.01478
1272.81,0.01798
1268.95,0.02067
1265.09,0.02273
1261.24,0.02425
1257.38,0.02564
1253.52,0.02723
1249.67,0.02826
1245.81,0.02791
1241.95,0.02605
1238.1,0.02298
1234.24,0.01971
1230.38,0.01698
1226.52,0.01519
1222.67,0.01412
1218.81,0.01283
1214.95,0.01148
1211.1,0.01043
1207.24,0.00952
1203.38,0.00857
1199.53,0.00762
1195.67,0.00673
1191.81,0.00588
1187.95,0.00508
1184.1,0.00440
1180.24,0.00382
1176.38,0.00329
1172.53,0.00266
1168.67,0.00187
1164.81,0.00118
1160.96,0.00076
1157.1,0.00035
1153.24,0.00006
1149.39,0.00003
1145.53,0.00052
1141.67,0.00199
1137.81,0.00525
1133.96,0.01056
1130.1,0.01596
1126.24,0.01922
1122.39,0.01982
1118.53,0.01840
1114.67,0.01701
1110.82,0.01831
1106.96,0.01933
1103.1,0.01940
1099.24,0.01856
1095.39,0.01708
1091.53,0.01549
1087.67,0.01411
1083.82,0.01278
1079.96,0.01138
1076.1,0.01006
1072.25,0.00894
1068.39,0.00793
1064.53,0.00705
1060.67,0.00620
1056.82,0.00547
1052.96,0.00486
1049.1,0.00436
1045.25,0.00393
1041.39,0.00337
1037.53,0.00269
1033.68,0.00178
1029.82,0.00092
1025.96,0.00361
1022.1,0.00926
1018.25,0.00976
1014.39,0.00750
1010.53,0.00497
1006.68,0.00361
1002.82,0.00272
998.962,0.00209
995.105,0.00162
991.248,0.00136
987.391,0.00130
983.534,0.00105
979.677,0.00100
975.82,0.00157
971.963,0.00265
968.106,0.00301
964.249,0.00254
960.392,0.00201
956.535,0.00162
952.678,0.00136
948.821,0.00122
944.964,0.00111
941.107,0.00101
937.25,0.00091
933.393,0.00082
929.536,0.00072
925.679,0.00063
921.822,0.00057
917.965,0.00053
914.108,0.00045
910.251,0.00037
906.394,0.00033
902.537,0.00030
898.68,0.00030
894.823,0.00022
890.966,0.00007
887.109,0.00000
883.252,0.00008
879.395,0.00064
875.538,0.00236
871.681,0.00570
867.824,0.00263
863.967,0.00127
860.11,0.00102
856.253,0.00108
852.396,0.00111
848.539,0.00156
844.682,0.00177
840.825,0.00138
836.968,0.00101
833.111,0.00080
829.254,0.00077
825.397,0.00095
821.54,0.00084
817.683,0.00041
813.826,0.00014
809.969,0.00003
806.112,0.00000
802.255,0.00015
798.398,0.00043
794.541,0.00101
790.684,0.00158
786.827,0.00196
782.97,0.00244
779.113,0.00292
775.256,0.00343
771.399,0.00392
767.542,0.00437
763.685,0.00473
759.828,0.00520
755.971,0.00564
752.114,0.00593
748.257,0.00611
744.4,0.00626
740.543,0.00669
736.686,0.00849
732.829,0.01319
728.972,0.02072
725.115,0.02765
721.258,0.02727
717.401,0.02273
713.544,0.01951
709.687,0.01733
705.83,0.01562
701.973,0.01421
698.116,0.01287
694.259,0.01180
690.402,0.01084
686.545,0.00993
682.688,0.00907
678.831,0.00819
674.974,0.00721
671.117,0.00667
667.26,0.00995
663.403,0.00387
659.546,0.00288
655.689,0.00179
651.832,0.00065
649.904,0.00000